##NAMES=Actinolite
##RRUFFID=R040063
##IDEAL CHEMISTRY=Ca_2_(Mg_4.5-2.5_Fe^2+^_0.5-2.5_)_&#931;=5_Si_8_O_22_(OH)_2_
##LOCALITY=Harford County, Maryland, USA
##OWNER=RRUFF
##SOURCE=University of Arizona Mineral Museum
##DESCRIPTION=Mass of green acicular to bladed crystals associated with chlorite
##STATUS=The identification of this mineral has been confirmed by X-ray diffraction and chemical analysis
##URL=rruff.info/R040063
99.54712, 36.04333
101.4756, 39.82998
103.4041, 45.87225
105.3325, 50.77647
107.2610, 69.80628
109.1895, 103.7888
111.1179, 152.1949
113.0464, 225.8590
114.9749, 356.1400
116.9033, 492.1578
118.8318, 598.3763
120.7603, 676.6865
122.6887, 727.9243
124.6172, 750.4398
126.5457, 733.3105
128.4741, 723.5175
130.4026, 718.2394
132.3311, 721.5336
134.2595, 736.3323
136.1880, 773.1518
138.1165, 812.8427
140.0449, 846.5547
141.9734, 869.0354
143.9019, 895.5067
145.8303, 919.7307
147.7588, 945.8619
149.6873, 998.1187
151.6157, 1111.140
153.5442, 1233.760
155.4727, 1320.761
157.4011, 1368.183
159.3296, 1397.160
161.2581, 1399.614
163.1865, 1354.242
165.1150, 1375.631
167.0435, 1479.659
168.9719, 1648.481
170.9004, 1852.434
172.8289, 2186.134
174.7573, 2440.627
176.6858, 2533.293
178.6143, 2326.195
180.5427, 2120.416
182.4712, 1897.265
184.3997, 1673.959
186.3281, 1493.648
188.2566, 1382.528
190.1851, 1306.155
192.1135, 1251.747
194.0420, 1221.296
195.9705, 1207.085
197.8989, 1207.027
199.8274, 1219.215
201.7559, 1256.619
203.6843, 1315.811
205.6128, 1399.755
207.5413, 1512.809
209.4697, 1645.996
211.3982, 1817.636
213.3267, 2047.036
215.2551, 2371.177
217.1836, 2630.854
219.1121, 2830.544
221.0405, 2961.167
222.9690, 3027.221
224.8975, 3018.609
226.8259, 2952.349
228.7544, 2838.605
230.6829, 2646.903
232.6113, 2448.009
234.5398, 2210.012
236.4683, 1965.668
238.3967, 1778.120
240.3252, 1684.236
242.2537, 1629.720
244.1821, 1597.592
246.1106, 1606.734
248.0391, 1602.664
249.9675, 1571.368
251.8960, 1519.780
253.8245, 1466.534
255.7529, 1408.421
257.6814, 1352.108
259.6099, 1302.355
261.5384, 1258.438
263.4668, 1220.843
265.3953, 1189.912
267.3238, 1164.978
269.2522, 1146.970
271.1807, 1135.973
273.1092, 1131.012
275.0376, 1130.864
276.9661, 1132.501
278.8946, 1144.637
280.8230, 1172.987
282.7515, 1219.547
284.6800, 1260.037
286.6084, 1295.854
288.5369, 1325.279
290.4654, 1346.807
292.3938, 1358.525
294.3223, 1366.522
296.2508, 1373.012
298.1792, 1378.015
300.1077, 1380.323
302.0362, 1381.916
303.9646, 1379.865
305.8931, 1371.660
307.8216, 1352.235
309.7500, 1335.222
311.6785, 1324.333
313.6070, 1320.376
315.5354, 1317.169
317.4639, 1307.302
319.3924, 1302.148
321.3208, 1310.387
323.2493, 1341.652
325.1778, 1373.954
327.1062, 1405.544
329.0347, 1436.221
330.9632, 1458.499
332.8916, 1466.329
334.8201, 1469.415
336.7486, 1475.042
338.6770, 1475.704
340.6055, 1489.711
342.5340, 1526.746
344.4624, 1584.879
346.3909, 1636.026
348.3194, 1670.467
350.2478, 1701.726
352.1763, 1738.664
354.1048, 1753.330
356.0332, 1808.601
357.9617, 1921.697
359.8902, 2086.598
361.8186, 2270.349
363.7471, 2546.918
365.6756, 2781.009
367.6040, 2895.032
369.5325, 2791.521
371.4610, 2665.780
373.3894, 2473.197
375.3179, 2255.421
377.2464, 2116.255
379.1748, 2078.136
381.1033, 2116.296
383.0318, 2227.497
384.9602, 2482.656
386.8887, 2698.752
388.8172, 2920.585
390.7456, 3088.238
392.6741, 3110.031
394.6026, 2863.506
396.5310, 2583.428
398.4595, 2337.515
400.3880, 2122.064
402.3164, 1974.595
404.2449, 1930.101
406.1734, 1946.620
408.1018, 1975.054
410.0303, 2044.342
411.9588, 2085.471
413.8872, 2078.781
415.8157, 2017.119
417.7442, 1938.886
419.6726, 1823.371
421.6011, 1702.798
423.5296, 1599.468
425.4580, 1512.521
427.3865, 1448.151
429.3150, 1416.445
431.2434, 1413.124
433.1719, 1402.181
435.1004, 1381.791
437.0288, 1355.139
438.9573, 1323.275
440.8858, 1281.884
442.8142, 1246.876
444.7427, 1218.458
446.6712, 1197.627
448.5996, 1186.162
450.5281, 1189.809
452.4566, 1194.091
454.3851, 1192.663
456.3135, 1183.899
458.2420, 1179.029
460.1705, 1179.749
462.0989, 1183.242
464.0274, 1186.504
465.9559, 1188.728
467.8843, 1192.029
469.8128, 1196.392
471.7413, 1201.693
473.6697, 1209.289
475.5982, 1218.497
477.5267, 1230.165
479.4551, 1248.458
481.3836, 1275.148
483.3121, 1292.675
485.2405, 1291.707
487.1690, 1280.888
489.0975, 1271.527
491.0259, 1256.890
492.9544, 1250.861
494.8829, 1256.855
496.8113, 1274.635
498.7398, 1302.103
500.6683, 1343.118
502.5967, 1391.369
504.5252, 1443.484
506.4537, 1511.625
508.3821, 1565.516
510.3106, 1603.407
512.2391, 1624.918
514.1675, 1632.857
516.0960, 1617.514
518.0245, 1603.297
519.9529, 1601.690
521.8814, 1617.490
523.8099, 1622.980
525.7383, 1616.377
527.6668, 1602.271
529.5953, 1583.527
531.5237, 1559.327
533.4522, 1533.380
535.3807, 1499.490
537.3091, 1463.072
539.2376, 1442.307
541.1661, 1454.105
543.0945, 1463.131
545.0230, 1453.991
546.9515, 1429.247
548.8799, 1408.459
550.8084, 1398.363
552.7369, 1391.800
554.6653, 1384.385
556.5938, 1373.184
558.5223, 1365.598
560.4507, 1363.142
562.3792, 1364.423
564.3077, 1366.782
566.2361, 1372.295
568.1646, 1375.083
570.0931, 1372.274
572.0215, 1362.979
573.9500, 1355.426
575.8785, 1351.682
577.8069, 1348.088
579.7354, 1343.593
581.6639, 1339.351
583.5923, 1329.225
585.5208, 1306.999
587.4493, 1279.694
589.3777, 1257.487
591.3062, 1242.314
593.2347, 1229.715
595.1631, 1218.227
597.0916, 1208.569
599.0201, 1203.401
600.9485, 1205.112
602.8770, 1209.345
604.8055, 1214.413
606.7339, 1220.906
608.6624, 1227.106
610.5909, 1234.479
612.5193, 1240.934
614.4478, 1242.898
616.3763, 1237.411
618.3047, 1237.771
620.2332, 1250.771
622.1617, 1271.468
624.0901, 1288.712
626.0186, 1293.176
627.9471, 1304.279
629.8755, 1330.308
631.8040, 1368.968
633.7325, 1407.350
635.6609, 1438.418
637.5894, 1475.836
639.5179, 1524.639
641.4464, 1581.885
643.3748, 1659.555
645.3033, 1755.082
647.2318, 1870.249
649.1602, 1995.322
651.0887, 2110.381
653.0172, 2297.638
654.9456, 2531.966
656.8741, 2853.300
658.8026, 3368.519
660.7310, 4057.497
662.6595, 4970.682
664.5880, 6377.941
666.5164, 8116.327
668.4449, 9406.177
670.3734, 10314.35
672.3018, 10581.50
674.2303, 10027.54
676.1588, 8425.386
678.0872, 6972.143
680.0157, 5613.017
681.9442, 4440.099
683.8726, 3567.699
685.8011, 3002.076
687.7296, 2570.311
689.6580, 2300.469
691.5865, 2128.601
693.5150, 1989.137
695.4434, 1896.706
697.3719, 1817.181
699.3004, 1745.835
701.2288, 1684.172
703.1573, 1635.346
705.0858, 1603.279
707.0142, 1576.828
708.9427, 1551.716
710.8712, 1528.612
712.7996, 1511.657
714.7281, 1501.319
716.6566, 1497.583
718.5850, 1501.223
720.5135, 1513.191
722.4420, 1529.124
724.3704, 1541.316
726.2989, 1563.906
728.2274, 1606.153
730.1558, 1669.987
732.0843, 1736.537
734.0128, 1808.943
735.9412, 1878.995
737.8697, 1940.303
739.7982, 1998.061
741.7266, 2036.234
743.6551, 2049.386
745.5836, 2042.363
747.5120, 2024.673
749.4405, 1999.904
751.3690, 1954.986
753.2974, 1871.724
755.2259, 1767.711
757.1544, 1688.479
759.0828, 1646.987
761.0113, 1612.735
762.9398, 1579.149
764.8682, 1548.465
766.7967, 1526.891
768.7252, 1518.996
770.6536, 1514.400
772.5821, 1509.851
774.5106, 1505.388
776.4390, 1500.108
778.3675, 1493.461
780.2960, 1486.718
782.2244, 1479.287
784.1529, 1471.491
786.0814, 1467.294
788.0098, 1467.967
789.9383, 1471.808
791.8668, 1480.053
793.7952, 1495.679
795.7237, 1501.088
797.6522, 1483.382
799.5806, 1465.545
801.5091, 1465.266
803.4376, 1485.254
805.3660, 1503.079
807.2945, 1514.945
809.2230, 1523.882
811.1514, 1532.872
813.0799, 1542.966
815.0084, 1547.887
816.9368, 1542.564
818.8653, 1534.700
820.7938, 1531.897
822.7223, 1536.000
824.6508, 1541.815
826.5792, 1552.085
828.5077, 1562.536
830.4362, 1568.798
832.3646, 1569.892
834.2931, 1569.650
836.2216, 1565.449
838.1500, 1561.456
840.0785, 1563.233
842.0070, 1574.402
843.9354, 1586.912
845.8639, 1603.609
847.7924, 1620.489
849.7208, 1631.928
851.6493, 1637.094
853.5778, 1640.007
855.5062, 1639.508
857.4347, 1637.948
859.3632, 1639.016
861.2916, 1643.032
863.2201, 1648.957
865.1486, 1657.655
867.0770, 1667.830
869.0055, 1676.804
870.9340, 1683.534
872.8624, 1692.280
874.7909, 1705.502
876.7194, 1721.724
878.6478, 1739.049
880.5763, 1760.356
882.5048, 1777.597
884.4332, 1786.657
886.3617, 1791.152
888.2902, 1798.633
890.2186, 1810.507
892.1471, 1822.255
894.0756, 1832.766
896.0040, 1842.603
897.9325, 1852.408
899.8610, 1861.310
901.7894, 1872.532
903.7179, 1887.474
905.6464, 1904.928
907.5748, 1922.968
909.5033, 1935.478
911.4318, 1956.358
913.3602, 1982.043
915.2887, 2018.342
917.2172, 2075.075
919.1456, 2155.289
921.0741, 2242.804
923.0026, 2351.603
924.9310, 2457.190
926.8595, 2532.652
928.7880, 2582.668
930.7164, 2587.312
932.6449, 2520.443
934.5734, 2421.716
936.5018, 2337.684
938.4303, 2268.319
940.3588, 2211.502
942.2872, 2171.290
944.2157, 2142.038
946.1442, 2119.803
948.0726, 2106.003
950.0011, 2090.717
951.9296, 2067.861
953.8580, 2045.610
955.7865, 2029.841
957.7150, 2022.189
959.6434, 2017.338
961.5719, 2017.828
963.5004, 2018.785
965.4288, 2014.622
967.3573, 2005.191
969.2858, 2003.381
971.2142, 2017.715
973.1427, 2032.913
975.0712, 2041.046
976.9996, 2042.009
978.9281, 2039.871
980.8566, 2029.454
982.7850, 2021.277
984.7135, 2018.205
986.6420, 2020.588
988.5704, 2030.943
990.4989, 2057.310
992.4274, 2083.091
994.3558, 2100.026
996.2843, 2112.269
998.2128, 2129.673
1000.141, 2148.513
1002.070, 2180.825
1003.998, 2237.346
1005.927, 2308.586
1007.855, 2371.028
1009.784, 2401.940
1011.712, 2453.022
1013.641, 2523.158
1015.569, 2618.477
1017.497, 2756.626
1019.426, 2947.241
1021.354, 3139.961
1023.283, 3383.652
1025.211, 3585.451
1027.140, 3669.855
1029.068, 3628.919
1030.997, 3523.281
1032.925, 3294.847
1034.854, 3059.215
1036.782, 2878.896
1038.711, 2757.318
1040.639, 2681.000
1042.568, 2650.012
1044.496, 2658.932
1046.424, 2714.529
1048.353, 2813.698
1050.281, 2929.552
1052.210, 3082.355
1054.138, 3219.007
1056.067, 3318.811
1057.995, 3386.534
1059.924, 3428.575
1061.852, 3440.471
1063.781, 3430.136
1065.709, 3407.208
1067.638, 3361.002
1069.566, 3272.181
1071.495, 3109.377
1073.423, 2959.655
1075.351, 2819.621
1077.280, 2699.850
1079.208, 2616.781
1081.137, 2569.880
1083.065, 2521.787
1084.994, 2454.792
1086.922, 2399.875
1088.851, 2378.454
1090.779, 2388.760
1092.708, 2389.448
1094.636, 2365.930
1096.565, 2348.339
1098.493, 2348.397
1100.422, 2360.804
1102.350, 2368.113
1104.278, 2366.384
1106.207, 2365.600
1108.135, 2366.475
1110.064, 2368.844
1111.992, 2372.838
1113.921, 2378.472
1115.849, 2383.549
1117.778, 2391.727
1119.706, 2395.280
1121.635, 2387.021
1123.563, 2365.993
1125.492, 2351.372
1127.420, 2346.393
1129.349, 2346.029
1131.277, 2351.456
1133.205, 2360.996
1135.134, 2366.885
1137.062, 2369.168
1138.991, 2368.226
1140.919, 2359.671
1142.848, 2350.033
1144.776, 2349.324
1146.705, 2359.258
1148.633, 2364.438
1150.562, 2357.228
1152.490, 2348.403
1154.419, 2343.739
1156.347, 2343.218
1158.276, 2347.190
1160.204, 2362.964
1162.132, 2375.021
1164.061, 2372.455
1165.989, 2362.452
1167.918, 2368.516
1169.846, 2410.303
1171.775, 2437.672
1173.703, 2433.755
1175.632, 2419.656
1177.560, 2418.705
1179.489, 2430.985
1181.417, 2439.659
1183.346, 2439.696
1185.274, 2438.350
1187.203, 2438.273
1189.131, 2439.993
1191.059, 2446.722
1192.988, 2465.849
1194.916, 2478.460
1196.845, 2471.656
1198.773, 2459.998
1200.702, 2465.362
1202.630, 2504.058
1204.559, 2527.238
1206.487, 2520.592
1208.416, 2510.049
1210.344, 2512.087
1212.273, 2525.770
1214.201, 2537.694
1216.130, 2547.136
1218.058, 2556.731
1219.986, 2569.919
1221.915, 2583.836
1223.843, 2594.312
1225.772, 2601.299
1227.700, 2605.920
1229.629, 2602.854
1231.557, 2601.979
1233.486, 2609.849
1235.414, 2626.769
1237.343, 2643.253
1239.271, 2661.036
1241.200, 2675.894
1243.128, 2687.368
1245.057, 2694.758
1246.985, 2695.493
1248.913, 2684.021
1250.842, 2679.718
1252.770, 2689.910
1254.699, 2702.725
1256.627, 2710.490
1258.556, 2714.563
1260.484, 2720.484
1262.413, 2730.321
1264.341, 2740.151
1266.270, 2747.437
1268.198, 2754.305
1270.127, 2763.670
1272.055, 2775.780
1273.984, 2786.414
1275.912, 2794.156
1277.840, 2800.223
1279.769, 2804.441
1281.697, 2807.301
1283.626, 2811.720
1285.554, 2818.793
1287.483, 2826.942
1289.411, 2834.798
1291.340, 2844.387
1293.268, 2858.513
1295.197, 2877.766
1297.125, 2895.763
1299.054, 2917.977
1300.982, 2932.406
1302.911, 2928.472
1304.839, 2914.925
1306.767, 2907.786
1308.696, 2906.519
1310.624, 2916.616
1312.553, 2953.507
1314.481, 2988.163
1316.410, 2996.031
1318.338, 2980.280
1320.267, 2976.820
1322.195, 2993.162
1324.124, 3011.769
1326.052, 3036.553
1327.981, 3056.933
1329.909, 3057.405
1331.838, 3027.061
1333.766, 3013.521
1335.694, 3032.832
1337.623, 3049.489
1339.551, 3044.935
1341.480, 3027.759
1343.408, 3021.066
1345.337, 3026.259
1347.265, 3035.376
1349.194, 3053.300
1351.122, 3069.341
1353.051, 3072.797
1354.979, 3068.013
1356.908, 3075.030
1358.836, 3104.383
1360.765, 3121.531
1362.693, 3099.766
1364.621, 3073.772
1366.550, 3077.966
1368.478, 3110.791
1370.407, 3130.821
1372.335, 3124.411
1374.264, 3119.989
1376.192, 3127.327
1378.121, 3141.105
1380.049, 3154.858
1381.978, 3169.230
1383.906, 3178.537
1385.835, 3178.937
1387.763, 3178.114
1389.692, 3179.724
1391.620, 3182.690
1393.548, 3183.894
1395.477, 3182.645
1397.405, 3182.884
1399.334, 3187.028
1401.262, 3190.940
1403.191, 3189.270
1405.119, 3184.871
1407.048, 3190.370
1408.976, 3209.418
1410.905, 3227.176
1412.833, 3243.589
1414.762, 3255.485
1416.690, 3257.075
1418.619, 3251.808
1420.547, 3253.340
1422.475, 3264.347
1424.404, 3276.206
1426.332, 3284.295
1428.261, 3293.288
1430.189, 3309.500
1432.118, 3330.365
1434.046, 3339.433
1435.975, 3327.821
1437.903, 3321.194
1439.832, 3338.162
1441.760, 3356.253
1443.689, 3352.575
1445.617, 3327.330
1447.546, 3317.095
1449.474, 3335.862
1451.402, 3350.556
1453.331, 3347.086
1455.259, 3340.422
1457.188, 3347.258
1459.116, 3369.822
1461.045, 3383.566
1462.973, 3377.420
1464.902, 3375.640
1466.830, 3388.628
1468.759, 3404.345
1470.687, 3408.633
1472.616, 3400.191
1474.544, 3395.790
1476.473, 3401.175
1478.401, 3404.116
1480.329, 3395.527
1482.258, 3388.006
1484.186, 3398.932
1486.115, 3429.048
1488.043, 3448.390
1489.972, 3452.873
1491.900, 3451.151
1493.829, 3438.640
1495.757, 3425.147
1497.686, 3421.953
1499.614, 3428.055
1501.543, 3434.506
1503.471, 3440.565
1505.400, 3448.834
1507.328, 3465.483
1509.256, 3481.016
1511.185, 3483.450
1513.113, 3475.801
1515.042, 3476.904
1516.970, 3489.980
1518.899, 3503.948
1520.827, 3513.892
1522.756, 3523.906
1524.684, 3540.844
1526.613, 3561.552
1528.541, 3569.240
1530.470, 3558.073
1532.398, 3552.776
1534.327, 3568.492
1536.255, 3583.865
1538.183, 3583.354
1540.112, 3571.507
1542.040, 3567.601
1543.969, 3573.842
1545.897, 3579.274
1547.826, 3580.248
1549.754, 3581.587
1551.683, 3584.636
1553.611, 3589.890
1555.540, 3599.175
1557.468, 3614.262
1559.397, 3627.016
1561.325, 3634.704
1563.254, 3641.802
1565.182, 3654.118
1567.111, 3664.053
1569.039, 3657.903
1570.968, 3629.707
1572.896, 3614.329
1574.824, 3622.320
1576.753, 3630.488
1578.681, 3636.510
1580.610, 3639.651
1582.538, 3635.220
1584.467, 3623.318
1586.395, 3624.878
1588.324, 3648.526
1590.252, 3672.436
1592.181, 3697.970
1594.109, 3719.893
1596.038, 3736.594
1597.966, 3747.217
1599.895, 3747.882
1601.823, 3731.965
1603.751, 3720.540
1605.680, 3716.506
1607.608, 3714.382
1609.537, 3708.581
1611.465, 3704.561
1613.394, 3712.706
1615.322, 3735.553
1617.251, 3752.490
1619.179, 3762.022
1621.108, 3765.736
1623.036, 3760.011
1624.965, 3751.450
1626.893, 3746.644
1628.822, 3745.517
1630.750, 3743.509
1632.678, 3743.676
1634.607, 3739.605
1636.535, 3724.307
1638.464, 3712.703
1640.392, 3713.138
1642.321, 3721.561
1644.249, 3730.550
1646.178, 3739.332
1648.106, 3748.237
1650.035, 3762.012
1651.963, 3768.754
1653.892, 3759.995
1655.820, 3747.838
1657.749, 3745.716
1659.677, 3752.286
1661.605, 3751.790
1663.534, 3738.039
1665.462, 3733.701
1667.391, 3749.024
1669.319, 3765.194
1671.248, 3770.845
1673.176, 3771.630
1675.105, 3778.945
1677.033, 3794.353
1678.962, 3799.425
1680.890, 3780.188
1682.819, 3769.482
1684.747, 3776.771
1686.676, 3792.062
1688.604, 3814.483
1690.532, 3839.320
1692.461, 3845.739
1694.389, 3822.019
1696.318, 3814.130
1698.246, 3840.712
1700.175, 3861.310
1702.103, 3861.819
1704.032, 3849.959
1705.960, 3827.957
1707.889, 3797.483
1709.817, 3787.584
1711.746, 3817.224
1713.674, 3833.302
1715.603, 3819.763
1717.531, 3806.436
1719.459, 3807.652
1721.388, 3817.708
1723.316, 3829.943
1725.245, 3845.522
1727.173, 3852.403
1729.102, 3841.014
1731.030, 3836.262
1732.959, 3850.804
1734.887, 3862.726
1736.816, 3852.211
1738.744, 3831.025
1740.673, 3825.938
1742.601, 3840.390
1744.530, 3854.523
1746.458, 3871.927
1748.386, 3883.147
1750.315, 3884.483
1752.243, 3880.911
1754.172, 3870.844
1756.100, 3859.412
1758.029, 3863.491
1759.957, 3892.002
1761.886, 3905.205
1763.814, 3888.218
1765.743, 3877.949
1767.671, 3886.758
1769.600, 3900.902
1771.528, 3912.835
1773.457, 3921.541
1775.385, 3922.227
1777.313, 3911.699
1779.242, 3906.309
1781.170, 3906.090
1783.099, 3911.025
1785.027, 3926.815
1786.956, 3941.588
1788.884, 3949.836
1790.813, 3950.822
1792.741, 3937.570
1794.670, 3908.174
1796.598, 3896.801
1798.527, 3919.366
1800.455, 3933.338
1802.384, 3915.088
1804.312, 3895.128
1806.240, 3893.093
1808.169, 3903.857
1810.097, 3920.921
1812.026, 3944.136
1813.954, 3953.730
1815.883, 3939.430
1817.811, 3933.807
1819.740, 3957.496
1821.668, 3979.111
1823.597, 3970.637
1825.525, 3950.604
1827.454, 3952.743
1829.382, 3974.767
1831.311, 3981.826
1833.239, 3966.508
1835.167, 3954.217
1837.096, 3947.921
1839.024, 3949.726
1840.953, 3970.916
1842.881, 3993.572
1844.810, 3992.455
1846.738, 3969.893
1848.667, 3949.462
1850.595, 3924.152
1852.524, 3918.957
1854.452, 3964.133
1856.381, 3992.180
1858.309, 3966.228
1860.238, 3930.642
1862.166, 3925.650
1864.094, 3942.678
1866.023, 3953.453
1867.951, 3955.259
1869.880, 3958.129
1871.808, 3959.649
1873.737, 3964.093
1875.665, 3970.031
1877.594, 3980.605
1879.522, 4006.280
1881.451, 4033.095
1883.379, 4036.338
1885.308, 4017.899
1887.236, 4008.293
1889.165, 4011.928
1891.093, 4008.214
1893.021, 3985.836
1894.950, 3968.954
1896.878, 3971.100
1898.807, 3979.529
1900.735, 3989.719
1902.664, 3997.127
1904.592, 3986.351
1906.521, 3957.685
1908.449, 3944.008
1910.378, 3952.418
1912.306, 3965.152
1914.235, 3980.451
1916.163, 3995.272
1918.092, 4010.762
1920.020, 4022.276
1921.948, 4023.854
1923.877, 4016.138
1925.805, 4002.803
1927.734, 3979.089
1929.662, 3964.227
1931.591, 3960.900
1933.519, 3963.182
1935.448, 3976.207
1937.376, 3988.581
1939.305, 3992.812
1941.233, 3993.013
1943.162, 3996.020
1945.090, 4001.044
1947.019, 3996.885
1948.947, 3978.484
1950.875, 3973.343
1952.804, 3992.537
1954.732, 4008.700
1956.661, 4010.805
1958.589, 4010.675
1960.518, 4017.338
1962.446, 4025.283
1964.375, 4023.511
1966.303, 4014.930
1968.232, 4019.762
1970.160, 4043.050
1972.089, 4047.159
1974.017, 4013.136
1975.946, 3985.453
1977.874, 3982.371
1979.802, 3985.294
1981.731, 3982.624
1983.659, 3979.338
1985.588, 3982.486
1987.516, 3991.365
1989.445, 4001.258
1991.373, 4010.679
1993.302, 4024.124
1995.230, 4054.844
1997.159, 4068.098
1999.087, 4044.124
2001.016, 4019.029
2002.944, 4007.382
2004.873, 4005.896
2006.801, 4015.283
2008.729, 4031.447
2010.658, 4039.144
2012.586, 4038.042
2014.515, 4044.393
2016.443, 4063.877
2018.372, 4074.880
2020.300, 4065.321
2022.229, 4055.852
2024.157, 4056.235
2026.086, 4059.235
2028.014, 4056.940
2029.943, 4053.856
2031.871, 4062.356
2033.800, 4082.736
2035.728, 4091.079
2037.656, 4078.004
2039.585, 4074.211
2041.513, 4087.265
2043.442, 4098.639
2045.370, 4103.843
2047.299, 4106.888
2049.227, 4109.185
2051.156, 4110.615
2053.084, 4110.271
2055.013, 4109.283
2056.941, 4109.949
2058.870, 4112.419
2060.798, 4121.705
2062.727, 4141.302
2064.655, 4152.985
2066.583, 4145.989
2068.512, 4141.509
2070.440, 4153.405
2072.369, 4163.593
2074.297, 4157.267
2076.226, 4144.688
2078.154, 4136.584
2080.083, 4134.500
2082.011, 4149.162
2083.940, 4187.646
2085.868, 4200.646
2087.797, 4176.086
2089.725, 4155.828
2091.654, 4145.896
2093.582, 4141.174
2095.510, 4137.441
2097.439, 4141.417
2099.367, 4168.899
2101.296, 4199.359
2103.224, 4204.989
2105.153, 4192.205
2107.081, 4180.102
2109.010, 4167.797
2110.938, 4169.229
2112.867, 4195.506
2114.795, 4213.729
2116.724, 4216.510
2118.652, 4219.095
2120.581, 4215.605
2122.509, 4224.101
2124.438, 4264.059
2126.366, 4312.393
2128.294, 4345.316
2130.223, 4366.100
2132.151, 4386.017
2134.080, 4402.818
2136.008, 4392.696
2137.937, 4347.166
2139.865, 4341.435
2141.794, 4417.523
2143.722, 4464.911
2145.651, 4438.787
2147.579, 4407.676
2149.508, 4392.773
2151.436, 4390.193
2153.365, 4400.653
2155.293, 4418.352
2157.221, 4436.993
2159.150, 4454.954
2161.078, 4464.212
2163.007, 4464.838
2164.935, 4471.785
2166.864, 4487.833
2168.792, 4497.898
2170.721, 4495.667
2172.649, 4495.953
2174.578, 4509.241
2176.506, 4518.058
2178.435, 4510.906
2180.363, 4499.247
2182.292, 4493.148
2184.220, 4489.095
2186.148, 4478.924
2188.077, 4465.875
2190.005, 4467.316
2191.934, 4484.118
2193.862, 4484.553
2195.791, 4461.241
2197.719, 4461.887
2199.648, 4506.438
2201.576, 4535.592
2203.505, 4524.124
2205.433, 4505.034
2207.362, 4490.746
2209.290, 4476.449
2211.219, 4455.580
2213.147, 4435.967
2215.075, 4428.806
2217.004, 4430.979
2218.932, 4435.229
2220.861, 4441.134
2222.789, 4437.209
2224.718, 4422.438
2226.646, 4409.099
2228.575, 4396.469
2230.503, 4394.244
2232.432, 4409.042
2234.360, 4424.457
2236.289, 4437.424
2238.217, 4445.356
2240.146, 4443.041
2242.074, 4438.140
2244.002, 4436.452
2245.931, 4436.925
2247.859, 4441.338
2249.788, 4446.718
2251.716, 4438.177
2253.645, 4418.847
2255.573, 4417.932
2257.502, 4438.412
2259.430, 4440.794
2261.359, 4413.469
2263.287, 4393.753
2265.216, 4392.264
2267.144, 4393.706
2269.073, 4395.419
2271.001, 4399.143
2272.929, 4409.478
2274.858, 4417.438
2276.786, 4409.462
2278.715, 4400.436
2280.643, 4413.357
2282.572, 4434.380
2284.500, 4433.182
2286.429, 4415.935
2288.357, 4413.532
2290.286, 4428.294
2292.214, 4430.279
2294.143, 4408.296
2296.071, 4403.203
2298.000, 4431.613
2299.928, 4445.146
2301.856, 4427.811
2303.785, 4415.600
2305.713, 4424.018
2307.642, 4430.951
2309.570, 4419.663
2311.499, 4409.232
2313.427, 4414.892
2315.356, 4427.255
2317.284, 4437.461
2319.213, 4445.062
2321.141, 4447.501
2323.070, 4446.515
2324.998, 4454.870
2326.927, 4472.428
2328.855, 4473.479
2330.783, 4456.970
2332.712, 4440.758
2334.640, 4426.238
2336.569, 4416.702
2338.497, 4416.801
2340.426, 4413.857
2342.354, 4393.412
2344.283, 4386.224
2346.211, 4418.445
2348.140, 4444.808
2350.068, 4433.760
2351.997, 4415.842
2353.925, 4411.023
2355.854, 4414.165
2357.782, 4427.513
2359.710, 4440.022
2361.639, 4426.627
2363.567, 4396.929
2365.496, 4384.731
2367.424, 4389.911
2369.353, 4404.387
2371.281, 4432.045
2373.210, 4444.119
2375.138, 4437.997
2377.067, 4429.940
2378.995, 4421.680
2380.924, 4410.017
2382.852, 4389.466
2384.781, 4375.283
2386.709, 4377.479
2388.637, 4378.664
2390.566, 4372.202
2392.494, 4364.590
2394.423, 4357.125
2396.351, 4353.154
2398.280, 4356.144
2400.208, 4362.794
2402.137, 4368.068
2404.065, 4374.961
2405.994, 4390.570
2407.922, 4410.231
2409.851, 4426.146
2411.779, 4436.605
2413.708, 4427.110
2415.636, 4397.251
2417.564, 4379.389
2419.493, 4374.100
2421.421, 4382.344
2423.350, 4406.708
2425.278, 4423.228
2427.207, 4429.295
2429.135, 4422.418
2431.064, 4384.803
2432.992, 4361.429
2434.921, 4372.364
2436.849, 4379.372
2438.778, 4367.312
2440.706, 4359.515
2442.635, 4372.188
2444.563, 4383.749
2446.491, 4375.736
2448.420, 4367.402
2450.348, 4378.630
2452.277, 4393.489
2454.205, 4389.135
2456.134, 4380.431
2458.062, 4396.635
2459.991, 4422.654
2461.919, 4417.721
2463.848, 4396.345
2465.776, 4410.220
2467.705, 4450.814
2469.633, 4449.859
2471.562, 4405.895
2473.490, 4383.460
2475.418, 4385.804
2477.347, 4390.847
2479.275, 4399.144
2481.204, 4400.188
2483.132, 4391.282
2485.061, 4385.418
2486.989, 4388.521
2488.918, 4387.064
2490.846, 4374.379
2492.775, 4365.835
2494.703, 4363.282
2496.632, 4367.286
2498.560, 4381.708
2500.489, 4393.704
2502.417, 4395.593
2504.345, 4394.907
2506.274, 4390.337
2508.202, 4391.242
2510.131, 4411.014
2512.059, 4431.960
2513.988, 4443.256
2515.916, 4445.264
2517.845, 4433.105
2519.773, 4415.260
2521.702, 4399.578
2523.630, 4385.845
2525.559, 4373.261
2527.487, 4363.552
2529.416, 4365.129
2531.344, 4373.057
2533.272, 4364.153
2535.201, 4345.750
2537.129, 4358.427
2539.058, 4394.079
2540.986, 4396.763
2542.915, 4365.653
2544.843, 4355.208
2546.772, 4367.295
2548.700, 4380.585
2550.629, 4394.910
2552.557, 4405.928
2554.486, 4413.675
2556.414, 4413.921
2558.343, 4405.550
2560.271, 4396.710
2562.199, 4385.153
2564.128, 4383.854
2566.056, 4406.750
2567.985, 4415.220
2569.913, 4395.718
2571.842, 4387.341
2573.770, 4403.628
2575.699, 4416.670
2577.627, 4419.676
2579.556, 4414.649
2581.484, 4392.943
2583.413, 4378.596
2585.341, 4385.415
2587.270, 4394.158
2589.198, 4399.292
2591.126, 4402.278
2593.055, 4402.640
2594.983, 4401.772
2596.912, 4402.047
2598.840, 4398.527
2600.769, 4378.220
2602.697, 4364.512
2604.626, 4388.471
2606.554, 4411.523
2608.483, 4395.618
2610.411, 4374.646
2612.340, 4385.150
2614.268, 4402.203
2616.197, 4395.812
2618.125, 4381.593
2620.053, 4379.111
2621.982, 4380.425
2623.910, 4371.950
2625.839, 4362.350
2627.767, 4371.439
2629.696, 4383.654
2631.624, 4363.542
2633.553, 4330.872
2635.481, 4330.072
2637.410, 4347.739
2639.338, 4350.540
2641.267, 4346.133
2643.195, 4354.310
2645.124, 4369.423
2647.052, 4375.874
2648.980, 4375.471
2650.909, 4378.838
2652.837, 4382.540
2654.766, 4363.725
2656.694, 4331.083
2658.623, 4321.684
2660.551, 4330.717
2662.480, 4324.773
2664.408, 4306.098
2666.337, 4296.612
2668.265, 4296.266
2670.194, 4313.043
2672.122, 4342.313
2674.051, 4352.835
2675.979, 4343.965
2677.907, 4323.156
2679.836, 4290.474
2681.764, 4283.601
2683.693, 4301.477
2685.621, 4309.892
2687.550, 4308.457
2689.478, 4305.165
2691.407, 4300.121
2693.335, 4290.898
2695.264, 4276.533
2697.192, 4265.570
2699.121, 4258.038
2701.049, 4241.656
2702.978, 4217.166
2704.906, 4213.745
2706.834, 4236.607
2708.763, 4246.666
2710.691, 4242.419
2712.620, 4233.838
2714.548, 4220.248
2716.477, 4224.224
2718.405, 4246.100
2720.334, 4257.534
2722.262, 4256.306
2724.191, 4245.582
2726.119, 4224.511
2728.048, 4205.294
2729.976, 4188.667
2731.905, 4172.871
2733.833, 4158.142
2735.761, 4154.649
2737.690, 4166.705
2739.618, 4138.150
2741.547, 4064.767
2743.475, 4036.476
2745.404, 4051.978
2747.332, 4042.055
2749.261, 4002.263
2751.189, 3974.023
2753.118, 3958.321
2755.046, 3943.147
2756.975, 3928.755
2758.903, 3915.473
2760.832, 3904.652
2762.760, 3913.805
2764.688, 3941.899
2766.617, 3937.806
2768.545, 3902.425
2770.474, 3894.961
2772.402, 3910.431
2774.331, 3911.722
2776.259, 3901.583
2778.188, 3910.526
2780.116, 3934.778
2782.045, 3939.675
2783.973, 3928.568
2785.902, 3922.183
2787.830, 3919.550
2789.759, 3915.245
2791.687, 3911.232
2793.615, 3922.814
2795.544, 3941.361
2797.472, 3929.200
2799.401, 3901.065
2801.329, 3910.335
2803.258, 3935.050
2805.186, 3920.722
2807.115, 3884.664
2809.043, 3857.598
2810.972, 3842.581
2812.900, 3853.887
2814.829, 3874.833
2816.757, 3878.254
2818.686, 3874.016
2820.614, 3874.336
2822.542, 3878.501
2824.471, 3888.322
2826.399, 3898.316
2828.328, 3901.354
2830.256, 3902.242
2832.185, 3907.490
2834.113, 3911.978
2836.042, 3913.384
2837.970, 3909.214
2839.899, 3882.217
2841.827, 3869.655
2843.756, 3916.952
2845.684, 3960.588
2847.613, 3948.051
2849.541, 3931.275
2851.469, 3940.851
2853.398, 3949.371
2855.326, 3941.791
2857.255, 3936.393
2859.183, 3945.099
2861.112, 3952.871
2863.040, 3957.604
2864.969, 3954.103
2866.897, 3933.960
2868.826, 3922.469
2870.754, 3934.127
2872.683, 3942.969
2874.611, 3950.818
2876.540, 3939.912
2878.468, 3899.816
2880.396, 3887.346
2882.325, 3923.499
2884.253, 3940.221
2886.182, 3926.013
2888.110, 3911.117
2890.039, 3895.301
2891.967, 3891.150
2893.896, 3899.776
2895.824, 3896.480
2897.753, 3879.971
2899.681, 3888.274
2901.610, 3917.798
2903.538, 3939.196
2905.467, 3951.683
2907.395, 3953.367
2909.323, 3947.114
2911.252, 3933.990
2913.180, 3924.117
2915.109, 3957.213
2917.037, 4000.024
2918.966, 3985.726
2920.894, 3957.885
2922.823, 3985.300
2924.751, 4025.948
2926.680, 4035.857
2928.608, 4030.873
2930.537, 4014.863
2932.465, 4001.499
2934.394, 4008.967
2936.322, 4010.336
2938.250, 3980.395
2940.179, 3961.535
2942.107, 3980.648
2944.036, 3998.711
2945.964, 4001.759
2947.893, 4003.377
2949.821, 4006.393
2951.750, 4007.403
2953.678, 4002.372
2955.607, 4009.134
2957.535, 4046.026
2959.464, 4051.788
2961.392, 4021.325
2963.321, 4008.616
2965.249, 4016.816
2967.177, 4029.899
2969.106, 4046.394
2971.034, 4040.720
2972.963, 4018.227
2974.891, 4009.853
2976.820, 4009.535
2978.748, 3997.037
2980.677, 3982.059
2982.605, 3987.510
2984.534, 4000.778
2986.462, 4002.395
2988.391, 4004.513
2990.319, 4022.010
2992.248, 4041.608
2994.176, 4060.304
2996.104, 4065.619
2998.033, 4039.893
2999.961, 4021.458
3001.890, 4030.032
3003.818, 4043.729
3005.747, 4060.354
3007.675, 4068.957
3009.604, 4064.834
3011.532, 4064.594
3013.461, 4078.666
3015.389, 4070.948
3017.318, 4038.398
3019.246, 4021.204
3021.175, 4020.697
3023.103, 4031.988
3025.031, 4050.700
3026.960, 4049.373
3028.888, 4036.690
3030.817, 4045.370
3032.745, 4061.043
3034.674, 4060.466
3036.602, 4052.351
3038.531, 4041.802
3040.459, 4037.697
3042.388, 4051.870
3044.316, 4066.848
3046.245, 4068.159
3048.173, 4071.468
3050.102, 4081.327
3052.030, 4097.520
3053.959, 4127.112
3055.887, 4139.820
3057.816, 4115.269
3059.744, 4105.760
3061.673, 4114.651
3063.601, 4123.781
3065.530, 4132.466
3067.458, 4147.812
3069.386, 4166.768
3071.315, 4161.302
3073.243, 4144.550
3075.172, 4169.538
3077.100, 4203.666
3079.029, 4188.546
3080.957, 4162.530
3082.886, 4176.646
3084.814, 4191.645
3086.743, 4172.358
3088.671, 4158.735
3090.600, 4169.603
3092.528, 4191.859
3094.457, 4227.307
3096.385, 4249.438
3098.313, 4249.438
3100.242, 4241.996
3102.170, 4228.486
3104.099, 4213.336
3106.027, 4198.633
3107.956, 4199.456
3109.884, 4210.445
3111.813, 4193.585
3113.741, 4167.162
3115.670, 4177.020
3117.598, 4204.360
3119.527, 4239.315
3121.455, 4261.990
3123.384, 4243.680
3125.312, 4223.652
3127.240, 4217.298
3129.169, 4223.411
3131.097, 4261.369
3133.026, 4269.659
3134.954, 4230.773
3136.883, 4216.819
3138.811, 4237.812
3140.740, 4269.682
3142.668, 4310.007
3144.597, 4320.224
3146.525, 4311.302
3148.454, 4324.627
3150.382, 4345.755
3152.311, 4350.467
3154.239, 4346.040
3156.167, 4337.373
3158.096, 4329.191
3160.024, 4321.648
3161.953, 4321.734
3163.881, 4336.926
3165.810, 4349.181
3167.738, 4355.092
3169.667, 4356.928
3171.595, 4353.240
3173.524, 4354.958
3175.452, 4361.050
3177.381, 4355.953
3179.309, 4343.908
3181.238, 4338.674
3183.166, 4339.399
3185.094, 4344.740
3187.023, 4355.640
3188.951, 4379.026
3190.880, 4399.573
3192.808, 4409.919
3194.737, 4410.434
3196.665, 4395.209
3198.594, 4390.008
3200.522, 4410.910
3202.451, 4412.843
3204.379, 4396.076
3206.308, 4396.241
3208.236, 4411.738
3210.165, 4429.685
3212.093, 4444.848
3214.021, 4435.248
3215.950, 4427.417
3217.878, 4454.791
3219.807, 4486.940
3221.735, 4508.054
3223.664, 4516.566
3225.592, 4505.815
3227.521, 4497.250
3229.449, 4495.650
3231.378, 4497.098
3233.306, 4501.986
3235.235, 4498.148
3237.163, 4490.048
3239.092, 4497.441
3241.020, 4513.126
3242.948, 4524.750
3244.877, 4530.929
3246.805, 4519.464
3248.734, 4515.811
3250.662, 4537.665
3252.591, 4560.860
3254.519, 4585.662
3256.448, 4586.691
3258.376, 4553.394
3260.305, 4551.830
3262.233, 4578.137
3264.162, 4580.521
3266.090, 4569.646
3268.019, 4577.896
3269.947, 4591.809
3271.875, 4591.620
3273.804, 4592.904
3275.732, 4607.777
3277.661, 4624.444
3279.589, 4642.241
3281.518, 4648.795
3283.446, 4637.099
3285.375, 4630.289
3287.303, 4628.979
3289.232, 4626.270
3291.160, 4624.961
3293.089, 4631.391
3295.017, 4644.515
3296.946, 4667.207
3298.874, 4688.781
3300.802, 4708.254
3302.731, 4710.918
3304.659, 4677.776
3306.588, 4673.371
3308.516, 4712.026
3310.445, 4733.221
3312.373, 4734.620
3314.302, 4734.516
3316.230, 4735.490
3318.159, 4748.354
3320.087, 4760.718
3322.016, 4747.582
3323.944, 4745.848
3325.873, 4791.259
3327.801, 4818.514
3329.729, 4787.410
3331.658, 4790.899
3333.586, 4834.044
3335.515, 4832.331
3337.443, 4797.067
3339.372, 4823.104
3341.300, 4867.543
3343.229, 4848.658
3345.157, 4820.827
3347.086, 4826.859
3349.014, 4844.882
3350.943, 4873.053
3352.871, 4889.413
3354.800, 4881.872
3356.728, 4883.729
3358.656, 4892.674
3360.585, 4884.659
3362.513, 4875.240
3364.442, 4911.724
3366.370, 4953.358
3368.299, 4958.504
3370.227, 4958.107
3372.156, 4970.920
3374.084, 4971.570
3376.013, 4952.584
3377.941, 4948.563
3379.870, 4961.085
3381.798, 4964.581
3383.727, 4960.994
3385.655, 4947.400
3387.583, 4943.489
3389.512, 4989.464
3391.440, 5021.387
3393.369, 5000.667
3395.297, 4998.311
3397.226, 5050.015
3399.154, 5072.645
3401.083, 5068.051
3403.011, 5061.842
3404.940, 5060.462
3406.868, 5087.104
3408.797, 5115.722
3410.725, 5120.630
3412.654, 5122.244
3414.582, 5133.814
3416.510, 5134.995
3418.439, 5122.370
3420.367, 5116.530
3422.296, 5119.500
3424.224, 5142.031
3426.153, 5172.046
3428.081, 5191.256
3430.010, 5200.678
3431.938, 5191.831
3433.867, 5187.952
3435.795, 5194.461
3437.724, 5210.195
3439.652, 5237.073
3441.581, 5260.014
3443.509, 5274.380
3445.438, 5255.113
3447.366, 5230.584
3449.294, 5238.076
3451.223, 5254.595
3453.151, 5270.549
3455.080, 5286.349
3457.008, 5301.671
3458.937, 5318.409
3460.865, 5334.715
3462.794, 5331.170
3464.722, 5321.404
3466.651, 5331.890
3468.579, 5352.068
3470.508, 5382.873
3472.436, 5404.928
3474.365, 5413.808
3476.293, 5411.273
3478.221, 5396.979
3480.150, 5399.784
3482.078, 5411.111
3484.007, 5400.580
3485.935, 5391.241
3487.864, 5406.901
3489.792, 5431.276
3491.721, 5465.105
3493.649, 5479.545
3495.578, 5468.050
3497.506, 5448.507
3499.435, 5428.572
3501.363, 5437.187
3503.292, 5452.558
3505.220, 5434.876
3507.148, 5437.980
3509.077, 5512.188
3511.005, 5549.301
3512.934, 5535.485
3514.862, 5539.925
3516.791, 5557.867
3518.719, 5559.188
3520.648, 5555.385
3522.576, 5563.046
3524.505, 5567.911
3526.433, 5555.789
3528.362, 5554.913
3530.290, 5568.201
3532.219, 5600.530
3534.147, 5639.889
3536.075, 5634.735
3538.004, 5608.090
3539.932, 5569.805
3541.861, 5551.774
3543.789, 5571.242
3545.718, 5596.348
3547.646, 5622.144
3549.575, 5656.832
3551.503, 5692.802
3553.432, 5695.234
3555.360, 5695.257
3557.289, 5728.473
3559.217, 5761.919
3561.146, 5788.955
3563.074, 5792.033
3565.002, 5769.234
3566.931, 5767.379
3568.859, 5781.856
3570.788, 5805.985
3572.716, 5830.401
3574.645, 5852.099
3576.573, 5859.883
3578.502, 5837.029
3580.430, 5821.765
3582.359, 5818.300
3584.287, 5874.263
3586.216, 5947.975
3588.144, 5969.025
3590.073, 5985.154
3592.001, 6041.646
3593.929, 6049.950
3595.858, 5994.875
3597.786, 5978.570
3599.715, 5996.261
3601.643, 6018.275
3603.572, 6046.529
3605.500, 6091.920
3607.429, 6125.257
3609.357, 6129.842
3611.286, 6137.208
3613.214, 6149.639
3615.143, 6172.495
3617.071, 6201.470
3619.000, 6237.570
3620.928, 6262.777
3622.856, 6254.939
3624.785, 6263.663
3626.713, 6297.651
3628.642, 6317.252
3630.570, 6328.060
3632.499, 6347.218
3634.427, 6384.966
3636.356, 6440.924
3638.284, 6541.706
3640.213, 6703.836
3642.141, 6827.293
3644.070, 6900.867
3645.998, 6895.628
3647.927, 6868.117
3649.855, 6810.792
3651.783, 6921.425
3653.712, 7306.963
3655.640, 7881.195
3657.569, 8648.963
3659.497, 8945.924
3661.426, 8851.664
3663.354, 8281.438
3665.283, 7889.523
3667.211, 8002.557
3669.140, 8923.606
3671.068, 10852.08
3672.997, 11830.09
3674.925, 11811.84
3676.854, 10341.72
3678.782, 8640.544
3680.710, 7606.530
3682.639, 6991.231
3684.567, 6776.276
3686.496, 6698.552
3688.424, 6710.506
3690.353, 6697.600
3692.281, 6683.614
3694.210, 6690.453
3696.138, 6705.823
3698.067, 6726.974
3699.995, 6730.959
3701.924, 6722.529
3703.852, 6760.237
3705.781, 6813.163
3707.709, 6852.497
3709.637, 6883.005
3711.566, 6907.451
3713.494, 6916.917
3715.423, 6911.479
3717.351, 6901.676
3719.280, 6894.305
3721.208, 6898.053
3723.137, 6912.110
3725.065, 6942.608
3726.994, 6948.432
3728.922, 6932.275
3730.851, 6943.449
3732.779, 6967.822
3734.708, 6990.779
3736.636, 7006.977
3738.564, 7008.658
3740.493, 7036.621
3742.421, 7087.384
3744.350, 7106.894
3746.278, 7108.344
3748.207, 7090.635
3750.135, 7105.435
3752.064, 7180.469
3753.992, 7194.036
3755.921, 7153.641
3757.849, 7171.586
3759.778, 7207.378
3761.706, 7218.412
3763.635, 7224.656
3765.563, 7228.975
3767.491, 7244.268
3769.420, 7271.199
3771.348, 7327.248
3773.277, 7376.411
3775.205, 7367.277
3777.134, 7386.704
3779.062, 7455.671
3780.991, 7471.034
3782.919, 7450.556
3784.848, 7470.817
3786.776, 7494.175
3788.705, 7482.373
3790.633, 7501.651
3792.562, 7561.021
3794.490, 7575.189
3796.418, 7571.522
3798.347, 7631.730
3800.275, 7675.825
3802.204, 7626.533
3804.132, 7637.823
3806.061, 7712.819
3807.989, 7724.039
3809.918, 7709.496
3811.846, 7716.135
3813.775, 7738.700
3815.703, 7780.614
3817.632, 7814.362
3819.560, 7839.446
3821.489, 7863.981
3823.417, 7885.763
3825.345, 7899.293
3827.274, 7917.905
3829.202, 7944.675
3831.131, 7964.016
3833.059, 7980.999
3834.988, 8016.054
3836.916, 8042.118
3838.845, 8031.884
3840.773, 8048.434
3842.702, 8093.638
3844.630, 8138.834
3846.559, 8173.840
3848.487, 8163.129
3850.416, 8172.659
3852.344, 8243.144
3854.272, 8272.910
3856.201, 8275.115
3858.129, 8283.858
3860.058, 8303.088
3861.986, 8341.902
3863.915, 8373.388
3865.843, 8393.115
3867.772, 8406.428
3869.700, 8421.785
3871.629, 8461.602
3873.557, 8495.467
3875.486, 8512.016
3877.414, 8483.343
3879.343, 8438.040
3881.271, 8494.981
3883.199, 8569.996
3885.128, 8618.824
3887.056, 8609.686
3888.985, 8555.590
3890.913, 8599.422
3892.842, 8671.310
3894.770, 8691.104
3896.699, 8721.191
3898.627, 8773.605
3900.556, 8817.306
3902.484, 8851.188
3904.413, 8888.643
3906.341, 8928.270
3908.270, 8944.994
3910.198, 8949.293
3912.126, 8967.078
3914.055, 9009.581
3915.983, 9048.099
3917.912, 9073.738
3919.840, 9110.229
3921.769, 9159.746
3923.697, 9206.132
3925.626, 9247.905
3927.554, 9245.431
3929.483, 9248.845
3931.411, 9295.790
3933.340, 9325.504
3935.268, 9342.540
3937.197, 9363.421
3939.125, 9389.877
3941.053, 9423.145
3942.982, 9454.322
3944.910, 9501.916
3946.839, 9532.672
3948.767, 9554.869
3950.696, 9592.493
3952.624, 9616.526
3954.553, 9626.549
3956.481, 9663.424
3958.410, 9710.008
3960.338, 9770.729
3962.267, 9788.249
3964.195, 9699.963
3966.124, 9695.713
3968.052, 9766.964
3969.980, 9821.545
3971.909, 9845.729
3973.837, 9854.676
3975.766, 9873.653
3977.694, 9893.277
3979.623, 9934.736
3981.551, 9990.160
3983.480, 10011.19
3985.408, 10011.72
3987.337, 10023.89
3989.265, 10086.40
3991.194, 10150.14
3993.122, 10170.03
3995.051, 10205.22
3996.979, 10252.21
3998.907, 10259.45
4000.836, 10253.36
4002.764, 10261.94
4004.693, 10298.29
4006.621, 10364.53
4008.550, 10405.27
4010.478, 10433.96
4012.407, 10473.41
4014.335, 10506.25
4016.264, 10529.61
4018.192, 10568.72
4020.121, 10611.13
4022.049, 10625.28
4023.978, 10641.42
4025.906, 10677.37
4027.834, 10700.13
4029.763, 10714.88
4031.691, 10769.73
4033.620, 10812.92
4035.548, 10802.57
4037.477, 10793.30
4039.405, 10789.33
4041.334, 10824.02
4043.262, 10872.98
4045.191, 10902.55
4047.119, 10925.96
4049.048, 10959.90
4050.976, 10984.20
4052.905, 11008.15
4054.833, 11049.39
4056.761, 11082.02
4058.690, 11100.67
4060.618, 11100.49
4062.547, 11105.29
4064.475, 11152.40
4066.404, 11202.60
4068.332, 11247.29
4070.261, 11270.55
4072.189, 11274.08
4074.118, 11351.24
4076.046, 11441.68
4077.975, 11514.24
4079.903, 11593.17
4081.832, 11668.04
4083.760, 11641.07
4085.688, 11597.27
4087.617, 11632.15
4089.545, 11687.89
4091.474, 11742.33
4093.402, 11800.09
4095.331, 11861.99
4097.259, 11920.42
4099.188, 12017.09
4101.116, 12138.09
4103.045, 12189.91
4104.973, 12219.27
4106.902, 12259.31
4108.830, 12292.17
4110.759, 12334.86
4112.687, 12372.57
4114.616, 12418.92
4116.544, 12426.46
4118.473, 12403.15
4120.401, 12392.64
4122.330, 12405.50
4124.258, 12440.88
4126.187, 12484.98
4128.115, 12567.72
4130.043, 12654.66
4131.972, 12709.02
4133.900, 12791.78
4135.829, 12890.18
4137.757, 12966.11
4139.686, 13066.54
4141.614, 13204.20
4143.542, 13338.61
4145.471, 13430.70
4147.399, 13551.34
4149.328, 13744.14
4151.256, 13884.44
4153.185, 13988.86
4155.113, 14148.11
4157.042, 14312.37
4158.970, 14467.43
4160.899, 14643.07
4162.827, 14813.14
4164.756, 14898.16
4166.684, 14985.20
4168.613, 15173.70
4170.541, 15353.16
4172.470, 15498.20
4174.398, 15589.75
4176.327, 15672.36
4178.255, 15784.84
4180.184, 15902.45
4182.112, 16021.32
4184.041, 16083.96
4185.969, 16102.08
4187.897, 16055.06
4189.826, 16051.98
4191.754, 16124.91
4193.683, 16084.47
4195.611, 16008.67
4197.540, 16029.33
4199.468, 16008.01
4201.396, 15887.52
4203.325, 15871.50
4205.253, 15904.19
4207.182, 15883.21
4209.110, 15869.64
4211.039, 15874.44
4212.967, 15872.68
4214.896, 15883.63
4216.824, 15932.40
4218.753, 15983.33
4220.681, 16028.49
4222.610, 16023.36
4224.538, 16028.97
4226.467, 16116.32
4228.395, 16228.67
4230.324, 16360.38
4232.252, 16537.83
4234.181, 16689.68
4236.109, 16701.32
4238.038, 16809.89
4239.966, 17009.65
4241.895, 17087.63
4243.823, 17067.54
4245.751, 16924.82
4247.680, 16860.71
4249.608, 16866.09
4251.537, 16824.33
4253.465, 16774.04
4255.394, 16747.24
4257.322, 16656.50
4259.250, 16558.13
4261.179, 16660.11
4263.107, 16745.08
4265.036, 16701.33
4266.964, 16685.82
4268.893, 16701.59
4270.821, 16748.36
4272.750, 16786.71
4274.678, 16801.55
4276.607, 16947.55
4278.535, 17116.82
4280.464, 17113.96
4282.392, 17160.76
4284.321, 17301.41
4286.249, 17440.45
4288.178, 17599.60
4290.106, 17837.95
4292.035, 17995.32
4293.963, 18075.56
4295.892, 18260.05
4297.820, 18443.57
4299.749, 18533.14
4301.677, 18648.02
4303.605, 18788.35
4305.534, 18929.62
4307.462, 19081.93
4309.391, 19267.34
4311.319, 19372.64
4313.248, 19449.09
4315.176, 19602.76
4317.104, 19753.89
4319.033, 19884.60
4320.961, 20000.41
4322.890, 20105.06
4324.818, 20169.06
4326.747, 20312.92
4328.675, 20531.45
4330.604, 20679.69
4332.532, 20801.97
4334.461, 20934.18
4336.389, 21011.34
4338.318, 21048.29
4340.246, 21073.18
4342.175, 21126.19
4344.103, 21223.74
4346.032, 21285.84
4347.960, 21314.78
4349.889, 21315.02
4351.817, 21293.89
4353.746, 21263.11
4355.674, 21292.76
4357.603, 21342.11
4359.531, 21376.75
4361.459, 21425.27
4363.388, 21489.33
4365.316, 21578.55
4367.245, 21679.09
4369.173, 21788.46
4371.102, 21875.06
4373.030, 21945.79
4374.958, 22009.67
4376.887, 22060.12
4378.815, 22106.45
4380.744, 22230.92
4382.672, 22359.59
4384.601, 22412.72
4386.529, 22567.31
4388.458, 22772.67
4390.386, 22878.42
4392.315, 22990.53
4394.243, 23139.51
4396.172, 23343.11
4398.100, 23514.59
4400.029, 23529.02
4401.957, 23611.28
4403.886, 23781.65
4405.814, 24037.71
4407.743, 24263.93
4409.671, 24407.94
4411.600, 24550.34
4413.528, 24688.64
4415.457, 24791.12
4417.385, 24940.47
4419.313, 25146.63
4421.242, 25414.60
4423.170, 25677.00
4425.099, 25896.13
4427.027, 26068.59
4428.956, 26228.47
4430.884, 26443.22
4432.813, 26659.29
4434.741, 26869.88
4436.669, 27227.54
4438.598, 27598.43
4440.526, 27863.04
4442.455, 28146.35
4444.383, 28406.99
4446.312, 28513.34
4448.240, 28559.43
4450.169, 28577.96
4452.097, 28711.66
4454.026, 28786.93
4455.954, 28634.51
4457.883, 28544.49
4459.811, 28512.84
4461.740, 28468.47
4463.668, 28353.40
4465.597, 28151.48
4467.525, 28061.26
4469.454, 28009.83
4471.382, 27928.53
4473.311, 27835.03
4475.239, 27739.75
4477.167, 27676.74
4479.096, 27614.46
4481.024, 27545.24
4482.953, 27510.39
4484.881, 27495.56
4486.810, 27489.28
4488.738, 27489.47
4490.667, 27484.33
4492.595, 27458.82
4494.523, 27393.45
4496.452, 27298.20
4498.380, 27355.54
4500.309, 27432.32
4502.237, 27400.80
4504.166, 27410.91
4506.094, 27452.58
4508.023, 27530.56
4509.951, 27519.90
4511.880, 27422.94
4513.808, 27539.80
4515.737, 27664.53
4517.665, 27687.71
4519.594, 27699.90
4521.522, 27733.55
4523.451, 27846.65
4525.379, 27908.39
4527.308, 27923.32
4529.236, 27975.47
4531.165, 28081.19
4533.093, 28269.85
4535.021, 28220.97
4536.950, 28179.19
4538.878, 28393.05
4540.807, 28522.21
4542.735, 28574.14
4544.664, 28624.43
4546.592, 28707.91
4548.521, 28820.66
4550.449, 28900.34
4552.377, 28970.15
4554.306, 29063.75
4556.234, 29074.56
4558.163, 29080.25
4560.091, 29209.47
4562.020, 29265.54
4563.948, 29272.93
4565.877, 29426.39
4567.805, 29581.32
4569.734, 29687.11
4571.662, 29760.08
4573.591, 29824.63
4575.519, 29901.18
4577.448, 29974.31
4579.376, 30041.47
4581.305, 30092.42
4583.233, 30187.36
4585.162, 30321.79
4587.090, 30404.72
4589.019, 30500.57
4590.947, 30623.59
4592.875, 30718.98
4594.804, 30799.73
4596.732, 30891.17
4598.661, 30938.76
4600.589, 30972.62
4602.518, 31017.89
4604.446, 31179.29
4606.375, 31416.65
4608.303, 31499.60
4610.231, 31581.42
4612.160, 31709.58
4614.088, 31807.79
4616.017, 31867.83
4617.945, 31848.64
4619.874, 31993.76
4621.802, 32197.63
4623.731, 32326.91
4625.659, 32369.58
4627.588, 32380.98
4629.516, 32535.66
4631.445, 32645.46
4633.373, 32679.27
4635.302, 32811.77
4637.230, 32954.61
4639.159, 33060.11
4641.087, 33178.87
4643.016, 33293.67
4644.944, 33380.45
4646.873, 33513.98
4648.801, 33655.27
4650.729, 33704.88
4652.658, 33857.89
4654.586, 34084.43
4656.515, 34096.36
4658.443, 34146.07
4660.372, 34291.27
4662.300, 34410.36
4664.229, 34584.57
4666.157, 34875.14
4668.085, 34938.71
4670.014, 34932.98
4671.942, 35027.78
4673.871, 35074.88
4675.799, 35115.21
4677.728, 35252.86
4679.656, 35298.75
4681.585, 35300.14
4683.513, 35513.18
4685.442, 35677.97
4687.370, 35739.46
4689.299, 35804.76
4691.227, 35933.01
4693.156, 36138.96
4695.084, 36268.96
4697.013, 36339.19
4698.941, 36339.32
4700.870, 36511.30
4702.798, 36696.03
4704.727, 36668.93
4706.655, 36727.14
4708.583, 36850.36
4710.512, 36948.07
4712.440, 37030.75
4714.369, 37117.91
4716.297, 37297.69
4718.226, 37430.53
4720.154, 37488.28
4722.083, 37537.33
4724.011, 37614.07
4725.939, 37730.76
4727.868, 37863.36
4729.796, 37963.15
4731.725, 37964.49
4733.653, 38061.36
4735.582, 38204.86
4737.510, 38366.80
4739.439, 38428.05
4741.367, 38463.45
4743.296, 38578.46
4745.224, 38734.59
4747.153, 38890.40
4749.081, 38929.05
4751.010, 39136.15
4752.938, 39439.64
4754.867, 39416.29
4756.795, 39442.13
4758.724, 39587.52
4760.652, 39638.33
4762.581, 39677.43
4764.509, 39740.45
4766.438, 39947.23
4768.366, 40135.27
4770.294, 40227.09
4772.223, 40316.40
4774.151, 40433.38
4776.080, 40589.04
4778.008, 40800.85
4779.937, 41043.92
4781.865, 41333.70
4783.793, 41394.86
4785.722, 41352.20
4787.650, 41356.82
4789.579, 41451.27
4791.507, 41604.27
4793.436, 41776.09
4795.364, 41929.34
4797.293, 42065.18
4799.221, 42218.07
4801.150, 42302.95
4803.078, 42333.41
4805.007, 42337.24
4806.935, 42482.54
4808.864, 42726.26
4810.792, 42736.76
4812.721, 42756.19
4814.649, 42841.29
4816.578, 42923.91
4818.506, 43072.02
4820.435, 43274.55
4822.363, 43149.63
4824.292, 43158.29
4826.220, 43460.96
4828.148, 43551.56
4830.077, 43580.91
4832.005, 43627.76
4833.934, 43658.84
4835.862, 43698.88
4837.791, 43758.64
4839.719, 43949.98
4841.647, 44089.96
4843.576, 44036.15
4845.504, 44182.64
4847.433, 44374.83
4849.361, 44489.51
4851.290, 44627.23
4853.218, 44718.64
4855.147, 44667.29
4857.075, 44756.61
4859.004, 44870.24
4860.932, 44892.07
4862.861, 44921.89
4864.789, 44938.18
4866.718, 44860.88
4868.646, 44986.75
4870.575, 45148.93
4872.503, 45139.83
4874.432, 45195.25
4876.360, 45296.80
4878.289, 45399.68
4880.217, 45481.89
4882.146, 45543.64
4884.074, 45588.45
4886.002, 45612.46
4887.931, 45658.43
4889.859, 45794.32
4891.788, 45970.22
4893.716, 46105.60
4895.645, 46029.99
4897.573, 46252.75
4899.501, 46552.93
4901.430, 46515.22
4903.358, 46568.02
4905.287, 46646.46
4907.215, 46588.33
4909.144, 46600.57
4911.072, 46648.53
4913.001, 46631.25
4914.929, 46777.97
4916.858, 46992.45
4918.786, 47105.98
4920.715, 47261.77
4922.643, 47389.05
4924.572, 47382.18
4926.500, 47387.74
4928.429, 47417.67
4930.357, 47472.85
4932.286, 47514.70
4934.214, 47614.70
4936.143, 47868.25
4938.071, 48064.12
4940.000, 48186.41
4941.928, 48214.11
4943.856, 48355.24
4945.785, 48476.20
4947.713, 48407.32
4949.642, 48503.16
4951.570, 48654.28
4953.499, 48761.09
4955.427, 48716.35
4957.355, 48657.38
4959.284, 48712.05
4961.212, 48771.31
4963.141, 48812.21
4965.069, 48825.36
4966.998, 48948.49
4968.926, 49096.23
4970.855, 49202.01
4972.783, 49421.51
4974.712, 49611.52
4976.640, 49695.73
4978.569, 49650.98
4980.497, 49654.86
4982.426, 49757.04
4984.354, 49643.48
4986.283, 49614.24
4988.211, 49760.79
4990.140, 49944.88
4992.068, 50088.88
4993.997, 50176.93
4995.925, 50274.71
4997.854, 50411.13
4999.782, 50537.05
5001.710, 50380.58
5003.639, 50366.51
5005.567, 50517.90
5007.496, 50716.54
5009.424, 50835.58
5011.353, 50889.36
5013.281, 50937.19
5015.209, 50988.14
5017.138, 51046.54
5019.066, 51120.55
5020.995, 51191.56
5022.923, 51225.29
5024.852, 51183.62
5026.780, 51316.83
5028.709, 51441.85
5030.637, 51354.15
5032.566, 51475.87
5034.494, 51638.84
5036.423, 51754.80
5038.351, 51937.98
5040.280, 52033.92
5042.208, 52010.11
5044.137, 52069.06
5046.065, 52154.39
5047.994, 52260.18
5049.922, 52553.22
5051.851, 52606.02
5053.779, 52476.26
5055.708, 52569.18
5057.636, 52555.91
5059.564, 52536.22
5061.493, 52775.98
5063.421, 52955.16
5065.350, 53072.20
5067.278, 53151.75
5069.207, 53238.41
5071.135, 53334.27
5073.063, 53457.93
5074.992, 53396.39
5076.920, 53376.40
5078.849, 53515.10
5080.777, 53495.73
5082.706, 53574.75
5084.634, 53778.60
5086.563, 53882.62
5088.491, 53864.45
5090.420, 53793.73
5092.348, 53874.79
5094.277, 53978.34
5096.205, 54104.58
5098.134, 54288.39
5100.062, 54383.01
5101.991, 54405.19
5103.919, 54403.17
5105.848, 54245.57
5107.776, 54135.86
5109.705, 54203.14
5111.633, 54410.53
5113.562, 54474.91
5115.490, 54372.67
5117.418, 54638.05
5119.347, 54692.68
5121.275, 54520.25
5123.204, 54511.21
5125.132, 54395.34
5127.061, 54307.12
5128.989, 54514.47
5130.917, 54690.51
5132.846, 54747.75
5134.774, 54632.73
5136.703, 54529.37
5138.631, 54536.65
5140.560, 54690.19
5142.488, 54727.88
5144.417, 54763.76
5146.345, 54823.40
5148.274, 54884.45
5150.202, 54880.52
5152.131, 54895.84
5154.059, 55181.89
5155.988, 55126.39
5157.916, 55004.35
5159.845, 55111.99
5161.773, 55124.24
5163.702, 55153.99
5165.630, 55257.15
5167.559, 55371.38
5169.487, 55459.16
5171.416, 55516.59
5173.344, 55611.44
5175.272, 55611.89
5177.201, 55548.40
5179.129, 55501.42
5181.058, 55426.76
5182.986, 55320.39
5184.915, 55180.55
5186.843, 54971.30
5188.771, 54721.19
5190.700, 54461.37
5192.628, 54305.47
5194.557, 54237.94
5196.485, 54201.67
5198.414, 54061.87
5200.342, 54049.00
5202.271, 54074.70
5204.199, 54033.27
5206.128, 53899.10
5208.056, 53887.70
5209.985, 54063.35
5211.913, 53961.35
5213.842, 53984.40
5215.770, 54138.22
5217.699, 54224.23
5219.627, 54280.89
5221.556, 54300.88
5223.484, 54270.55
5225.413, 54256.14
5227.341, 54292.00
5229.270, 54371.90
5231.198, 54379.25
5233.126, 54387.85
5235.055, 54407.66
5236.983, 54479.91
5238.912, 54318.99
5240.840, 54173.99
5242.769, 54342.60
5244.697, 54380.28
5246.625, 54469.89
5248.554, 54670.77
5250.482, 54882.33
5252.411, 54928.58
5254.339, 54860.67
5256.268, 54829.11
5258.196, 54882.11
5260.125, 54918.05
5262.053, 54848.46
5263.982, 54961.89
5265.910, 55031.88
5267.839, 55023.32
5269.767, 55153.78
5271.696, 55068.65
5273.624, 54965.94
5275.553, 55228.53
5277.481, 55500.90
5279.410, 55596.66
5281.338, 55460.77
5283.267, 55729.03
5285.195, 55869.25
5287.124, 55834.75
5289.052, 55788.50
5290.980, 55851.18
5292.909, 55931.46
5294.837, 55941.80
5296.766, 55850.13
5298.694, 55909.75
5300.623, 56103.77
5302.551, 56030.59
5304.479, 55929.06
5306.408, 55890.46
5308.336, 55964.67
5310.265, 56104.30
5312.193, 56294.27
5314.122, 56499.49
5316.050, 56481.30
5317.979, 56602.58
5319.907, 56787.06
5321.836, 56816.74
5323.764, 56719.63
5325.693, 56686.92
5327.621, 56812.00
5329.550, 57024.17
5331.478, 57010.40
5333.407, 56907.43
5335.335, 57147.11
5337.264, 57164.00
5339.192, 57148.30
5341.121, 57247.55
5343.049, 57552.54
5344.978, 57611.77
5346.906, 57505.06
5348.834, 57633.18
5350.763, 57477.71
5352.691, 57389.10
5354.620, 57626.38
5356.548, 57617.12
5358.477, 57675.53
5360.405, 57815.17
5362.333, 57906.85
5364.262, 57865.30
5366.190, 57844.99
5368.119, 57947.98
5370.047, 58085.21
5371.976, 58173.55
5373.904, 58246.32
5375.833, 58403.20
5377.761, 58502.54
5379.690, 58638.14
5381.618, 58833.57
5383.547, 58689.93
5385.475, 58641.39
5387.404, 58699.10
5389.332, 58722.07
5391.261, 58940.04
5393.189, 59039.35
5395.118, 58907.95
5397.046, 58993.93
5398.975, 58969.74
5400.903, 58930.77
5402.832, 59074.21
5404.760, 58927.08
5406.688, 58938.79
5408.617, 59189.66
5410.545, 59377.18
5412.474, 59362.00
5414.402, 59317.65
5416.331, 59425.91
5418.259, 59277.86
5420.188, 59270.13
5422.116, 59416.85
5424.044, 59468.09
5425.973, 59459.49
5427.901, 59506.79
5429.830, 59649.35
5431.758, 59742.17
5433.687, 59768.75
5435.615, 59776.43
5437.544, 59833.68
5439.472, 59922.84
5441.401, 59933.50
5443.329, 59875.27
5445.258, 59977.68
5447.186, 60053.32
5449.115, 60009.42
5451.043, 59831.86
5452.972, 59947.87
5454.900, 60082.48
5456.829, 60173.89
5458.757, 60247.35
5460.686, 60329.50
5462.614, 60409.95
5464.542, 60493.63
5466.471, 60631.11
5468.399, 60637.23
5470.328, 60636.18
5472.256, 60754.16
5474.185, 60938.38
5476.113, 61006.08
5478.042, 61003.00
5479.970, 61082.96
5481.898, 61118.49
5483.827, 61261.55
5485.755, 61494.07
5487.684, 61349.02
5489.612, 61451.71
5491.541, 61537.85
5493.469, 61334.20
5495.398, 61364.41
5497.326, 61446.64
5499.255, 61555.94
5501.183, 61739.88
5503.112, 61581.56
5505.040, 61605.44
5506.969, 61872.67
5508.897, 61890.59
5510.826, 62064.05
5512.754, 62233.68
5514.683, 62272.98
5516.611, 62053.50
5518.540, 62072.23
5520.468, 62181.93
5522.396, 62146.85
5524.325, 62112.36
5526.253, 62342.41
5528.182, 62615.62
5530.110, 62479.43
5532.039, 62716.16
5533.967, 62889.34
5535.896, 62879.45
5537.824, 62953.39
5539.752, 63061.96
5541.681, 63153.29
5543.609, 63207.42
5545.538, 63336.81
5547.466, 63408.98
5549.395, 63451.74
5551.323, 63518.21
5553.252, 63574.80
5555.180, 63595.20
5557.109, 63624.46
5559.037, 63712.71
5560.966, 63655.21
5562.894, 63734.84
5564.823, 63885.31
5566.751, 63723.81
5568.680, 63949.33
5570.608, 64222.55
5572.537, 64365.45
5574.465, 64296.05
5576.394, 64412.58
5578.322, 64556.48
5580.250, 64627.64
5582.179, 64644.03
5584.107, 64701.39
5586.036, 64852.24
5587.964, 65109.72
5589.893, 65490.81
5591.821, 65531.38
5593.750, 65536.53
5595.678, 65821.01
5597.606, 66004.89
5599.535, 66068.59
5601.463, 66112.99
5603.392, 66251.28
5605.320, 66611.27
5607.249, 66833.76
5609.177, 67052.35
5611.106, 67550.30
5613.034, 67731.71
5614.963, 67884.35
5616.891, 67998.43
5618.820, 67899.55
5620.748, 68074.52
5622.677, 68144.88
5624.605, 68049.94
5626.534, 67929.98
5628.462, 67979.44
5630.391, 68139.83
5632.319, 68343.02
5634.248, 68537.91
5636.176, 68449.74
5638.104, 68511.27
5640.033, 68731.12
5641.961, 68633.73
5643.890, 68914.69
5645.818, 69096.19
5647.747, 69035.02
5649.675, 69045.88
5651.604, 69090.16
5653.532, 69243.77
5655.460, 69460.43
5657.389, 69458.16
5659.317, 69350.63
5661.246, 69454.45
5663.174, 69784.87
5665.103, 69959.56
5667.031, 69958.56
5668.960, 69971.81
5670.888, 70051.42
5672.817, 70087.48
5674.745, 70014.85
5676.674, 69945.42
5678.602, 69943.64
5680.531, 70027.77
5682.459, 69938.53
5684.388, 69879.22
5686.316, 69953.99
5688.245, 70180.19
5690.173, 70202.83
5692.102, 70314.85
5694.030, 70504.42
5695.958, 70342.39
5697.887, 70314.34
5699.815, 70283.90
5701.744, 70221.82
5703.672, 70197.71
5705.601, 70243.75
5707.529, 70229.14
5709.458, 70198.15
5711.386, 70312.40
5713.314, 70099.35
5715.243, 69998.95
5717.171, 70061.60
5719.100, 70145.35
5721.028, 70346.38
5722.957, 70373.16
5724.885, 70343.99
5726.814, 70470.73
5728.742, 70655.98
5730.671, 70635.34
5732.599, 70607.88
5734.528, 70797.92
5736.456, 70869.50
5738.385, 70821.00
5740.313, 70744.76
5742.242, 70697.50
5744.170, 70574.03
5746.099, 70640.37
5748.027, 70627.80
5749.956, 70499.88
5751.884, 70872.97
5753.813, 70728.77
5755.741, 70597.19
5757.669, 70653.98
5759.598, 70552.87
5761.526, 70559.16
5763.455, 70620.52
5765.383, 70705.45
5767.312, 70809.64
5769.240, 70760.13
5771.168, 70746.53
5773.097, 70857.02
5775.025, 71090.32
5776.954, 70856.44
5778.882, 70842.21
5780.811, 70868.42
5782.739, 70728.32
5784.668, 70731.40
5786.596, 70722.64
5788.525, 70762.84
5790.453, 70880.04
5792.382, 71104.48
5794.310, 70979.90
5796.239, 70872.90
5798.167, 70867.86
5800.096, 70810.32
5802.024, 70613.05
5803.953, 70489.38
5805.881, 70471.55
5807.810, 70527.86
5809.738, 70611.53
5811.667, 70678.90
5813.595, 70771.02
5815.523, 70851.72
5817.452, 70601.97
5819.380, 70688.23
5821.309, 70696.60
5823.237, 70595.36
5825.166, 70809.62
5827.094, 70894.47
5829.022, 70633.48
5830.951, 70314.64
5832.879, 70323.88
5834.808, 70507.58
5836.736, 70476.57
5838.665, 70435.03
5840.593, 70520.13
5842.522, 70498.09
5844.450, 70678.77
5846.379, 70726.63
5848.307, 70622.84
5850.236, 70605.42
5852.164, 70462.05
5854.093, 70444.74
5856.021, 70501.12
5857.950, 70528.89
5859.878, 70640.29
5861.807, 70598.23
5863.735, 70642.59
5865.664, 70753.68
5867.592, 70562.73
5869.521, 70601.29
5871.449, 70569.05
5873.377, 70487.73
5875.306, 70489.57
5877.234, 70443.10
5879.163, 70607.30
5881.091, 70751.91
5883.020, 70761.57
5884.948, 70806.44
5886.876, 70621.13
5888.805, 70468.59
5890.733, 70460.39
5892.662, 70589.47
5894.590, 70801.09
5896.519, 70780.71
5898.447, 70584.04
5900.376, 70419.79
5902.304, 70817.02
5904.233, 70606.09
5906.161, 70515.00
5908.090, 70620.16
5910.018, 70704.45
5911.947, 70645.52
5913.875, 70684.52
5915.804, 70738.53
5917.732, 70747.19
5919.661, 70717.52
5921.589, 70987.00
5923.518, 70934.82
5925.446, 70625.65
5927.375, 70371.00
5929.303, 70644.87
5931.231, 70543.69
5933.160, 70445.92
5935.088, 70526.18
5937.017, 70684.01
5938.945, 70688.34
5940.874, 70733.32
5942.802, 70695.00
5944.730, 70558.66
5946.659, 70642.20
5948.587, 70309.13
5950.516, 70335.10
5952.444, 70531.91
5954.373, 70474.64
5956.301, 70630.21
5958.230, 70748.24
5960.158, 70740.23
5962.087, 70635.08
5964.015, 70546.28
5965.944, 70656.88
5967.872, 70564.77
5969.801, 70334.95
5971.729, 70146.96
5973.658, 70188.73
5975.586, 70355.55
5977.515, 70350.77
5979.443, 70270.22
5981.372, 70307.25
5983.300, 70633.91
5985.229, 70498.91
5987.157, 70456.38
5989.085, 70532.34
5991.014, 70426.26
5992.942, 70197.14
5994.871, 70161.01
5996.799, 70301.99
5998.728, 70465.26
6000.656, 70426.26
6002.584, 70318.13
6004.513, 70209.42
6006.442, 70230.79
6008.370, 70363.29
6010.299, 70356.58
6012.227, 70565.74
6014.156, 70439.09
6016.084, 70194.24
6018.013, 70110.67
6019.941, 70164.73
6021.870, 70339.46
6023.798, 70408.32
6025.727, 70353.82
6027.655, 70254.34
6029.583, 70248.10
6031.512, 70253.36
6033.440, 70266.19
6035.369, 70257.16
6037.297, 70221.43
6039.226, 70461.38
6041.154, 70333.86
6043.083, 70242.07
6045.011, 70199.00
6046.939, 70053.34
6048.868, 70040.59
6050.796, 69937.64
6052.725, 69963.63
6054.653, 70104.64
6056.582, 70213.08
6058.510, 70422.73
6060.439, 70258.66
6062.367, 70389.89
6064.296, 70629.49
6066.224, 70400.52
6068.153, 69940.57
6070.081, 69775.27
6072.010, 69847.02
6073.938, 69976.44
6075.867, 69996.33
6077.795, 69700.70
6079.724, 69493.24
6081.652, 69603.25
6083.581, 69803.95
6085.509, 69782.29
6087.438, 69794.02
6089.366, 69705.52
6091.294, 69658.55
6093.223, 69726.82
6095.151, 69853.05
6097.080, 69605.63
6099.008, 69605.38
6100.937, 69711.55
6102.865, 69649.78
6104.793, 69392.35
6106.722, 69574.04
6108.650, 69296.16
6110.579, 69321.57
6112.507, 69497.11
6114.436, 69540.41
6116.364, 69522.12
6118.293, 69420.27
6120.221, 69300.41
6122.150, 69099.63
6124.078, 68957.16
6126.007, 69387.55
6127.935, 69211.27
6129.864, 69048.94
6131.792, 69046.55
6133.721, 69125.20
6135.649, 69144.79
6137.578, 68955.24
6139.506, 68865.56
6141.435, 68815.06
6143.363, 68822.54
6145.292, 68915.92
6147.220, 68892.97
6149.148, 68929.06
6151.077, 69104.43
6153.005, 69099.09
6154.934, 68839.25
6156.862, 68906.46
6158.791, 68789.27
6160.719, 68509.98
6162.647, 68436.20
6164.576, 68617.35
6166.504, 68783.29
6168.433, 68778.30
6170.361, 68741.20
6172.290, 68570.66
6174.218, 68388.05
6176.147, 68355.02
6178.075, 68441.79
6180.004, 68418.20
6181.932, 68472.16
6183.861, 68435.77
6185.789, 68309.63
6187.718, 68397.05
6189.646, 68072.77
6191.575, 68123.77
6193.503, 68238.00
6195.432, 68193.74
6197.360, 68087.44
6199.289, 68410.36
6201.217, 68169.02
6203.146, 68355.17
6205.074, 68315.71
6207.002, 67836.28
6208.931, 67934.41
6210.859, 67701.85
6212.788, 67823.12
6214.716, 67805.07
6216.645, 67620.50
6218.573, 67571.02
6220.501, 67661.42
6222.430, 67742.02
6224.358, 67715.55
6226.287, 67684.25
6228.215, 67665.83
6230.144, 67567.35
6232.072, 67543.69
6234.001, 67390.70
6235.929, 67267.99
6237.858, 67305.28
6239.786, 67423.76
6241.715, 67236.73
6243.643, 67141.97
6245.572, 67052.45
6247.500, 67020.85
6249.429, 66991.91
6251.357, 66868.02
6253.286, 66774.82
6255.214, 66834.55
6257.143, 66681.64
6259.071, 66704.16
6261.000, 66854.85
6262.928, 66594.58
6264.856, 66439.50
6266.785, 66499.47
6268.713, 66496.17
6270.642, 66298.42
6272.570, 66122.38
6274.499, 66401.35
6276.427, 66410.85
6278.355, 66167.92
6280.284, 66133.60
6282.212, 66331.52
6284.141, 66455.30
6286.069, 66158.20
6287.998, 66239.83
6289.926, 66302.81
6291.855, 66194.42
6293.783, 65999.06
6295.712, 65824.68
6297.640, 65673.16
6299.569, 65729.88
6301.497, 65887.36
6303.426, 65978.99
6305.354, 66003.42
6307.283, 66003.17
6309.211, 65922.53
6311.140, 65649.30
6313.068, 65592.23
6314.997, 65511.50
6316.925, 65342.29
6318.854, 65215.38
6320.782, 65401.31
6322.710, 65041.60
6324.639, 64930.80
6326.567, 64844.40
6328.496, 64853.95
6330.424, 65055.07
6332.353, 65162.05
6334.281, 65098.82
6336.209, 64916.94
6338.138, 64987.29
6340.066, 64900.18
6341.995, 64592.90
6343.923, 64799.45
6345.852, 64822.35
6347.780, 64738.84
6349.709, 64687.49
6351.637, 64753.62
6353.566, 64751.44
6355.494, 64388.89
6357.423, 64280.93
6359.351, 64252.44
6361.280, 64320.59
6363.208, 64163.23
6365.137, 63909.08
6367.065, 63924.57
6368.994, 63862.04
6370.922, 63794.98
6372.851, 63894.50
6374.779, 63927.82
6376.708, 63823.22
6378.636, 63702.35
6380.564, 63714.54
6382.493, 63655.88
6384.421, 63710.87
6386.350, 63764.05
6388.278, 63567.25
6390.207, 63392.82
6392.135, 63697.03
6394.063, 63271.37
6395.992, 63335.11
6397.920, 63263.13
6399.849, 63008.14
6401.777, 62831.96
6403.706, 62850.66
6405.634, 62778.61
6407.563, 62806.58
6409.491, 62837.29
6411.420, 62845.88
6413.348, 62762.98
6415.277, 62571.54
6417.205, 62333.34
6419.134, 62146.14
6421.062, 62157.16
6422.991, 62303.32
6424.919, 62262.79
6426.848, 62097.51
6428.776, 61992.00
6430.705, 61908.69
6432.633, 61934.73
6434.562, 61997.67
6436.490, 61961.68
6438.418, 61864.45
6440.347, 61784.55
6442.275, 61764.23
6444.204, 61780.38
6446.132, 61633.37
6448.061, 61753.45
6449.989, 61665.71
6451.917, 61467.27
6453.846, 61312.33
6455.774, 61159.41
6457.703, 61127.28
6459.631, 61184.22
6461.560, 60957.27
6463.488, 60799.48
6465.417, 60697.38
6467.345, 60687.46
6469.274, 60878.51
6471.202, 60753.02
6473.131, 60755.50
6475.059, 60443.99
6476.988, 60379.29
6478.916, 60423.99
6480.845, 60440.07
6482.773, 60619.59
6484.702, 60611.38
6486.630, 60529.67
6488.559, 60235.37
6490.487, 59906.93
6492.416, 59770.38
6494.344, 59774.49
6496.272, 59804.24
6498.201, 60273.78
6500.129, 60259.90
6502.058, 59823.45
6503.986, 59532.34
6505.915, 59372.57
6507.843, 59247.05
6509.771, 59197.71
6511.700, 59211.27
6513.628, 58937.77
6515.557, 58887.02
6517.485, 58849.69
6519.414, 58796.68
6521.342, 58711.69
6523.271, 58652.56
6525.199, 58780.17
6527.128, 58377.10
6529.056, 58689.74
6530.985, 58549.78
6532.913, 58348.58
6534.842, 58267.92
6536.770, 58211.71
6538.699, 58190.79
6540.627, 58318.41
6542.556, 58210.61
6544.484, 57997.69
6546.413, 57705.36
6548.341, 57561.05
6550.270, 57588.76
6552.198, 57643.05
6554.126, 57659.46
6556.055, 57565.93
6557.983, 57517.38
6559.912, 57311.54
6561.840, 57166.01
6563.769, 57158.48
6565.697, 57212.98
6567.625, 57222.50
6569.554, 57092.35
6571.482, 57059.70
6573.411, 56947.62
6575.339, 56696.21
6577.268, 56613.43
6579.196, 56738.20
6581.125, 56821.70
6583.053, 56704.65
6584.982, 56644.60
6586.910, 56652.45
6588.839, 56548.63
6590.767, 56365.83
6592.696, 56314.21
6594.624, 56282.55
6596.553, 56153.10
6598.481, 56037.62
##END=



