##NAMES=Actinolite
##RRUFFID=R040063
##IDEAL CHEMISTRY=Ca_2_(Mg_4.5-2.5_Fe^2+^_0.5-2.5_)_&#931;=5_Si_8_O_22_(OH)_2_
##LOCALITY=Harford County, Maryland, USA
##OWNER=RRUFF
##SOURCE=University of Arizona Mineral Museum
##DESCRIPTION=Mass of green acicular to bladed crystals associated with chlorite
##STATUS=The identification of this mineral has been confirmed by X-ray diffraction and chemical analysis
##URL=rruff.info/R040063
163.9207, 9383.799
165.8491, 9646.589
167.7776, 9927.591
169.7061, 10223.32
171.6345, 10491.60
173.5630, 10781.35
175.4915, 10940.15
177.4199, 10894.43
179.3484, 10785.88
181.2769, 10651.47
183.2053, 10524.13
185.1338, 10472.39
187.0623, 10517.55
188.9907, 10564.60
190.9192, 10618.83
192.8477, 10665.51
194.7761, 10681.12
196.7046, 10704.04
198.6331, 10766.87
200.5615, 10867.39
202.4900, 10979.75
204.4185, 11097.25
206.3469, 11241.13
208.2754, 11382.95
210.2039, 11596.14
212.1323, 11933.92
214.0608, 12357.27
215.9893, 12840.45
217.9177, 13408.19
219.8462, 13849.69
221.7747, 14150.15
223.7031, 14373.59
225.6316, 14579.72
227.5601, 14656.51
229.4885, 14521.56
231.4170, 14209.01
233.3455, 13802.05
235.2739, 13227.97
237.2024, 12800.90
239.1309, 12545.23
241.0593, 12398.54
242.9878, 12408.35
244.9163, 12458.16
246.8447, 12462.10
248.7732, 12422.12
250.7017, 12347.40
252.6301, 12224.95
254.5586, 12111.54
256.4871, 12002.14
258.4156, 11919.86
260.3440, 11905.67
262.2725, 11901.92
264.2010, 11835.63
266.1294, 11712.04
268.0579, 11643.87
269.9864, 11642.28
271.9148, 11644.74
273.8433, 11640.16
275.7718, 11640.67
277.7002, 11645.97
279.6287, 11663.60
281.5572, 11713.87
283.4856, 11794.89
285.4141, 11834.57
287.3426, 11819.58
289.2710, 11822.62
291.1995, 11860.65
293.1280, 11912.77
295.0564, 11979.63
296.9849, 12046.21
298.9134, 12094.79
300.8418, 12126.00
302.7703, 12150.24
304.6988, 12165.11
306.6272, 12188.38
308.5557, 12241.85
310.4842, 12270.41
312.4126, 12228.00
314.3411, 12166.60
316.2696, 12131.00
318.1980, 12119.71
320.1265, 12125.69
322.0550, 12148.35
323.9834, 12182.80
325.9119, 12233.25
327.8404, 12283.95
329.7688, 12328.55
331.6973, 12370.60
333.6258, 12410.52
335.5542, 12450.84
337.4827, 12495.82
339.4112, 12545.17
341.3396, 12621.80
343.2681, 12740.40
345.1966, 12848.72
347.1250, 12932.75
349.0535, 12996.57
350.9820, 13034.37
352.9104, 13056.84
354.8389, 13064.49
356.7674, 13061.07
358.6958, 13133.79
360.6243, 13291.01
362.5528, 13478.92
364.4812, 13743.10
366.4097, 13932.42
368.3382, 13979.36
370.2666, 13937.43
372.1951, 13813.55
374.1236, 13640.38
376.0520, 13521.45
377.9805, 13454.52
379.9090, 13449.65
381.8374, 13501.20
383.7659, 13640.01
385.6944, 13964.43
387.6228, 14268.66
389.5513, 14507.25
391.4798, 14636.85
393.4082, 14564.04
395.3367, 14317.22
397.2652, 14068.86
399.1936, 13812.35
401.1221, 13634.46
403.0506, 13545.82
404.9790, 13542.70
406.9075, 13676.16
408.8360, 13835.78
410.7644, 14016.01
412.6929, 14155.38
414.6214, 14143.63
416.5498, 13993.13
418.4783, 13815.22
420.4068, 13603.28
422.3352, 13433.62
424.2637, 13317.80
426.1922, 13248.22
428.1206, 13230.89
430.0491, 13246.71
431.9776, 13320.91
433.9060, 13401.00
435.8345, 13408.26
437.7630, 13348.10
439.6914, 13249.83
441.6199, 13109.48
443.5484, 13006.34
445.4768, 12956.51
447.4053, 12934.62
449.3338, 12946.79
451.2622, 12965.75
453.1907, 12987.73
455.1192, 13001.18
457.0477, 12979.65
458.9761, 12938.72
460.9046, 12937.18
462.8331, 12973.95
464.7615, 13004.32
466.6900, 13025.62
468.6185, 13036.66
470.5469, 13037.23
472.4754, 13027.68
474.4039, 12995.78
476.3323, 12964.51
478.2608, 12946.63
480.1893, 12944.02
482.1177, 12967.39
484.0462, 13010.82
485.9747, 13056.41
487.9031, 13106.60
489.8316, 13124.01
491.7601, 13078.06
493.6885, 13053.78
495.6170, 13079.20
497.5455, 13121.45
499.4739, 13167.11
501.4024, 13220.07
503.3309, 13283.51
505.2593, 13357.11
507.1878, 13443.53
509.1163, 13539.57
511.0447, 13627.45
512.9732, 13706.59
514.9017, 13769.78
516.8301, 13813.81
518.7586, 13845.43
520.6871, 13849.98
522.6155, 13865.34
524.5440, 13938.95
526.4725, 14009.19
528.4009, 14015.14
530.3294, 13965.96
532.2579, 13865.24
534.1863, 13726.28
536.1148, 13640.55
538.0433, 13623.09
539.9717, 13585.62
541.9002, 13496.26
543.8287, 13423.40
545.7571, 13383.00
547.6856, 13355.33
549.6141, 13332.25
551.5425, 13319.69
553.4710, 13334.01
555.3995, 13355.47
557.3279, 13346.45
559.2564, 13320.16
561.1849, 13323.40
563.1133, 13357.87
565.0418, 13365.91
566.9703, 13332.93
568.8987, 13301.98
570.8272, 13277.08
572.7557, 13257.57
574.6841, 13251.53
576.6126, 13241.02
578.5411, 13212.08
580.4695, 13178.65
582.3980, 13148.86
584.3265, 13125.92
586.2549, 13124.97
588.1834, 13134.07
590.1119, 13096.84
592.0403, 13006.42
593.9688, 12972.10
595.8973, 13034.08
597.8257, 13067.73
599.7542, 13050.09
601.6827, 13026.33
603.6111, 12990.80
605.5396, 12971.53
607.4681, 12999.23
609.3965, 13029.73
611.3250, 13016.52
613.2535, 12992.07
615.1819, 12999.25
617.1104, 13026.49
619.0389, 13042.87
620.9673, 13048.86
622.8958, 13069.99
624.8243, 13114.41
626.7527, 13144.06
628.6812, 13147.00
630.6097, 13151.25
632.5381, 13151.69
634.4666, 13162.77
636.3951, 13191.53
638.3235, 13227.74
640.2520, 13263.01
642.1805, 13308.30
644.1089, 13373.58
646.0374, 13455.16
647.9659, 13555.21
649.8943, 13666.03
651.8228, 13748.71
653.7513, 13808.25
655.6797, 13944.63
657.6082, 14133.31
659.5367, 14502.35
661.4651, 15029.46
663.3936, 15791.04
665.3221, 16993.25
667.2505, 18083.88
669.1790, 19252.66
671.1075, 19862.66
673.0359, 19534.66
674.9644, 18762.13
676.8929, 17553.47
678.8214, 16333.47
680.7498, 15418.16
682.6783, 14745.74
684.6068, 14267.16
686.5352, 13953.42
688.4637, 13742.96
690.3922, 13629.80
692.3206, 13515.95
694.2491, 13395.08
696.1776, 13318.22
698.1060, 13305.81
700.0345, 13285.42
701.9630, 13257.06
703.8914, 13216.18
705.8199, 13148.61
707.7484, 13095.41
709.6768, 13077.95
711.6053, 13060.00
713.5338, 13012.47
715.4622, 12975.32
717.3907, 12983.89
719.3192, 13006.72
721.2476, 13030.30
723.1761, 13043.43
725.1046, 13015.33
727.0330, 12971.10
728.9615, 12974.94
730.8900, 13018.80
732.8184, 13054.52
734.7469, 13081.21
736.6754, 13117.24
738.6038, 13164.96
740.5323, 13208.87
742.4608, 13254.52
744.3892, 13272.65
746.3177, 13259.98
748.2462, 13221.79
750.1746, 13146.09
752.1031, 13081.54
754.0316, 13040.47
755.9600, 13018.76
757.8885, 13031.88
759.8170, 13034.83
761.7454, 12985.54
763.6739, 12935.45
765.6024, 12916.47
767.5308, 12914.41
769.4593, 12928.00
771.3878, 12941.86
773.3162, 12930.68
775.2447, 12906.01
777.1732, 12889.06
779.1016, 12879.48
781.0301, 12877.32
782.9586, 12880.87
784.8870, 12875.79
786.8155, 12861.12
788.7440, 12862.62
790.6724, 12882.22
792.6009, 12880.61
794.5294, 12852.05
796.4578, 12840.41
798.3863, 12858.26
800.3148, 12844.96
802.2432, 12776.06
804.1717, 12725.34
806.1002, 12714.98
808.0286, 12711.91
809.9571, 12709.08
811.8856, 12706.20
813.8140, 12711.73
815.7425, 12707.27
817.6710, 12681.45
819.5994, 12651.89
821.5279, 12616.80
823.4564, 12595.76
825.3848, 12612.99
827.3134, 12638.42
829.2418, 12643.43
831.1703, 12640.03
833.0988, 12642.23
835.0272, 12646.04
836.9557, 12648.99
838.8842, 12647.21
840.8126, 12620.73
842.7411, 12586.81
844.6696, 12607.98
846.5980, 12662.14
848.5265, 12653.34
850.4550, 12596.76
852.3834, 12576.18
854.3119, 12587.23
856.2404, 12590.85
858.1688, 12586.79
860.0973, 12581.52
862.0258, 12576.15
863.9542, 12572.53
865.8827, 12571.31
867.8112, 12569.02
869.7396, 12565.15
871.6681, 12559.43
873.5966, 12549.46
875.5250, 12548.32
877.4535, 12557.83
879.3820, 12574.58
881.3104, 12603.93
883.2389, 12619.78
885.1674, 12616.46
887.0958, 12599.22
889.0243, 12553.43
890.9528, 12525.17
892.8812, 12534.93
894.8097, 12549.71
896.7382, 12573.80
898.6666, 12584.83
900.5951, 12561.18
902.5236, 12545.32
904.4520, 12549.30
906.3805, 12567.08
908.3090, 12615.36
910.2374, 12646.55
912.1659, 12606.25
914.0944, 12583.39
916.0228, 12632.76
917.9513, 12711.20
919.8798, 12815.95
921.8082, 12909.52
923.7367, 12964.19
925.6652, 13000.87
927.5936, 13051.54
929.5221, 13073.42
931.4506, 13018.54
933.3790, 12933.79
935.3075, 12843.47
937.2360, 12762.31
939.1644, 12695.11
941.0929, 12652.25
943.0214, 12667.20
944.9498, 12686.40
946.8783, 12640.18
948.8068, 12577.28
950.7352, 12550.68
952.6637, 12541.02
954.5922, 12529.29
956.5206, 12518.96
958.4491, 12521.74
960.3776, 12522.95
962.3060, 12506.61
964.2345, 12475.96
966.1630, 12421.40
968.0914, 12367.16
970.0199, 12352.29
971.9484, 12350.34
973.8768, 12318.35
975.8053, 12283.17
977.7338, 12285.72
979.6622, 12304.98
981.5907, 12317.38
983.5192, 12322.89
985.4476, 12312.73
987.3761, 12303.32
989.3046, 12325.07
991.2330, 12356.68
993.1615, 12370.48
995.0900, 12371.02
997.0184, 12353.43
998.9469, 12336.18
1000.875, 12349.05
1002.804, 12375.64
1004.732, 12398.43
1006.661, 12417.73
1008.589, 12429.02
1010.518, 12442.59
1012.446, 12460.35
1014.375, 12498.40
1016.303, 12580.17
1018.232, 12688.54
1020.160, 12813.93
1022.089, 12943.22
1024.017, 13091.96
1025.945, 13205.78
1027.874, 13244.97
1029.802, 13204.20
1031.731, 13037.89
1033.659, 12835.38
1035.588, 12642.14
1037.516, 12488.14
1039.445, 12401.26
1041.373, 12358.36
1043.302, 12345.82
1045.230, 12364.88
1047.159, 12420.98
1049.087, 12505.02
1051.016, 12644.54
1052.944, 12763.09
1054.872, 12820.88
1056.801, 12835.75
1058.729, 12812.54
1060.658, 12756.25
1062.586, 12650.63
1064.515, 12546.43
1066.443, 12464.73
1068.372, 12393.40
1070.300, 12336.70
1072.229, 12265.31
1074.157, 12154.41
1076.086, 12065.90
1078.014, 12032.40
1079.943, 11984.43
1081.871, 11890.50
1083.799, 11820.96
1085.728, 11799.10
1087.656, 11777.35
1089.585, 11742.57
1091.513, 11728.15
1093.442, 11747.59
1095.370, 11736.78
1097.299, 11681.00
1099.227, 11652.56
1101.156, 11662.16
1103.084, 11664.46
1105.013, 11654.71
1106.941, 11658.95
1108.870, 11677.07
1110.798, 11663.18
1112.726, 11618.07
1114.655, 11596.99
1116.583, 11595.11
1118.512, 11554.29
1120.440, 11491.17
1122.369, 11491.57
1124.297, 11529.82
1126.226, 11520.99
1128.154, 11486.46
1130.083, 11470.44
1132.011, 11465.67
1133.940, 11463.47
1135.868, 11459.00
1137.797, 11444.74
1139.725, 11424.45
1141.653, 11396.54
1143.582, 11371.81
1145.510, 11362.93
1147.439, 11356.83
1149.367, 11352.30
1151.296, 11337.06
1153.224, 11294.71
1155.153, 11257.53
1157.081, 11241.49
1159.010, 11227.24
1160.938, 11207.14
1162.867, 11196.06
1164.795, 11200.90
1166.724, 11200.60
1168.652, 11189.58
1170.580, 11183.29
1172.509, 11183.73
1174.437, 11182.56
1176.366, 11178.74
1178.294, 11153.23
1180.223, 11108.43
1182.151, 11070.95
1184.080, 11044.60
1186.008, 11045.23
1187.937, 11063.26
1189.865, 11079.70
1191.794, 11086.19
1193.722, 11061.33
1195.651, 11024.37
1197.579, 10999.58
1199.507, 10979.68
1201.436, 10952.97
1203.364, 10933.64
1205.293, 10940.18
1207.221, 10944.56
1209.150, 10926.76
1211.078, 10909.18
1213.007, 10900.63
1214.935, 10891.99
1216.864, 10873.63
1218.792, 10870.79
1220.721, 10898.86
1222.649, 10907.21
1224.578, 10894.31
1226.506, 10852.68
1228.434, 10781.15
1230.363, 10748.97
1232.291, 10751.22
1234.220, 10741.04
1236.148, 10723.41
1238.077, 10709.48
1240.005, 10704.00
1241.934, 10725.12
1243.862, 10747.84
1245.791, 10746.04
1247.719, 10731.78
1249.648, 10706.54
1251.576, 10685.06
1253.505, 10683.83
1255.433, 10672.31
1257.361, 10625.69
1259.290, 10599.45
1261.218, 10613.75
1263.147, 10627.80
1265.075, 10643.52
1267.004, 10635.28
1268.932, 10600.53
1270.861, 10572.18
1272.789, 10548.90
1274.718, 10510.57
1276.646, 10470.04
1278.575, 10474.29
1280.503, 10491.58
1282.432, 10465.71
1284.360, 10433.72
1286.288, 10427.44
1288.217, 10428.38
1290.145, 10429.05
1292.074, 10426.54
1294.002, 10421.87
1295.931, 10403.00
1297.859, 10356.57
1299.788, 10349.02
1301.716, 10398.12
1303.645, 10417.08
1305.573, 10403.30
1307.502, 10382.91
1309.430, 10357.40
1311.359, 10332.17
1313.287, 10308.45
1315.215, 10290.37
1317.144, 10273.58
1319.072, 10250.18
1321.001, 10230.91
1322.929, 10221.67
1324.858, 10220.69
1326.786, 10233.50
1328.715, 10228.50
1330.643, 10191.46
1332.572, 10185.47
1334.500, 10220.67
1336.429, 10194.70
1338.357, 10112.39
1340.286, 10095.71
1342.214, 10119.28
1344.142, 10113.05
1346.071, 10091.08
1347.999, 10067.59
1349.928, 10047.37
1351.856, 10031.22
1353.785, 10024.95
1355.713, 10041.54
1357.642, 10040.24
1359.570, 10008.30
1361.499, 9978.468
1363.427, 9955.792
1365.356, 9950.752
1367.284, 9958.788
1369.213, 9933.313
1371.141, 9891.777
1373.069, 9879.976
1374.998, 9880.431
1376.926, 9870.690
1378.855, 9859.768
1380.783, 9856.880
1382.712, 9850.357
1384.640, 9838.188
1386.569, 9816.729
1388.497, 9783.620
1390.426, 9758.257
1392.354, 9741.961
1394.283, 9724.500
1396.211, 9706.208
1398.140, 9690.418
1400.068, 9674.939
1401.996, 9662.509
1403.925, 9640.260
1405.853, 9577.602
1407.782, 9534.234
1409.710, 9557.801
1411.639, 9563.720
1413.567, 9528.967
1415.496, 9522.985
1417.424, 9548.116
1419.353, 9542.260
1421.281, 9512.331
1423.210, 9478.478
1425.138, 9457.433
1427.067, 9494.161
1428.995, 9522.124
1430.923, 9470.893
1432.852, 9429.934
1434.780, 9454.925
1436.709, 9451.762
1438.637, 9400.418
1440.566, 9364.811
1442.494, 9345.277
1444.423, 9323.693
1446.351, 9304.222
1448.280, 9309.251
1450.208, 9307.635
1452.137, 9253.709
1454.065, 9205.832
1455.994, 9190.896
1457.922, 9197.623
1459.850, 9252.296
1461.779, 9235.350
1463.707, 9136.014
1465.636, 9113.161
1467.564, 9141.378
1469.493, 9142.536
1471.421, 9119.437
1473.350, 9058.171
1475.278, 9007.755
1477.207, 9003.320
1479.135, 8998.018
1481.064, 8976.869
1482.992, 8960.027
1484.921, 8948.658
1486.849, 8941.194
1488.777, 8938.300
1490.706, 8958.777
1492.634, 8969.550
1494.563, 8909.303
1496.491, 8856.528
1498.420, 8855.924
1500.348, 8850.887
1502.277, 8825.718
1504.205, 8806.039
1506.134, 8793.762
1508.062, 8788.086
1509.991, 8782.145
1511.919, 8747.803
1513.848, 8717.624
1515.776, 8742.312
1517.704, 8748.224
1519.633, 8700.748
1521.561, 8671.718
1523.490, 8676.342
1525.418, 8650.890
1527.347, 8600.032
1529.275, 8559.650
1531.204, 8531.621
1533.132, 8530.348
1535.061, 8524.961
1536.989, 8487.487
1538.918, 8467.469
1540.846, 8479.885
1542.775, 8476.060
1544.703, 8451.779
1546.631, 8409.363
1548.560, 8367.990
1550.488, 8381.708
1552.417, 8398.984
1554.345, 8369.550
1556.274, 8337.815
1558.202, 8316.246
1560.131, 8289.451
1562.059, 8257.205
1563.988, 8243.676
1565.916, 8242.728
1567.845, 8241.366
1569.773, 8233.822
1571.702, 8212.321
1573.630, 8184.110
1575.559, 8140.230
1577.487, 8135.867
1579.416, 8172.067
1581.344, 8147.465
1583.272, 8085.875
1585.201, 8057.676
1587.129, 8047.145
1589.058, 8047.700
1590.986, 8046.441
1592.915, 8043.191
1594.843, 8021.572
1596.772, 7981.847
1598.700, 7977.859
1600.629, 7988.775
1602.557, 7957.844
1604.486, 7921.795
1606.414, 7912.254
1608.343, 7908.590
1610.271, 7916.308
1612.199, 7886.385
1614.128, 7822.443
1616.056, 7805.934
1617.985, 7812.463
1619.913, 7799.275
1621.842, 7780.485
1623.770, 7763.202
1625.699, 7749.063
1627.627, 7743.696
1629.556, 7721.083
1631.484, 7685.513
1633.413, 7661.565
1635.341, 7646.143
1637.270, 7634.295
1639.198, 7629.574
1641.126, 7642.435
1643.055, 7634.808
1644.983, 7601.799
1646.912, 7567.952
1648.840, 7536.424
1650.769, 7517.888
1652.697, 7501.311
1654.626, 7478.084
1656.554, 7457.482
1658.483, 7444.445
1660.411, 7409.846
1662.340, 7362.757
1664.268, 7374.565
1666.197, 7398.538
1668.125, 7378.699
1670.053, 7351.816
1671.982, 7330.251
1673.910, 7314.629
1675.839, 7304.730
1677.767, 7279.199
1679.696, 7252.510
1681.624, 7265.337
1683.553, 7262.938
1685.481, 7204.653
1687.410, 7184.741
1689.338, 7221.951
1691.267, 7223.506
1693.195, 7198.312
1695.124, 7166.685
1697.052, 7138.325
1698.980, 7114.624
1700.909, 7118.524
1702.837, 7157.015
1704.766, 7145.583
1706.694, 7097.889
1708.623, 7072.941
1710.551, 7051.651
1712.480, 7011.121
1714.408, 6980.036
1716.337, 6964.638
1718.265, 6969.979
1720.194, 6987.881
1722.122, 6989.389
1724.051, 6976.577
1725.979, 6940.896
1727.907, 6911.274
1729.836, 6893.683
1731.764, 6884.834
1733.693, 6880.862
1735.621, 6864.025
1737.550, 6851.895
1739.478, 6876.106
1741.407, 6882.944
1743.335, 6858.081
1745.264, 6839.729
1747.192, 6824.900
1749.121, 6782.743
1751.049, 6748.482
1752.978, 6776.132
1754.906, 6775.111
1756.834, 6720.319
1758.763, 6697.715
1760.691, 6698.970
1762.620, 6681.023
1764.548, 6671.647
1766.477, 6704.901
1768.405, 6726.996
1770.334, 6727.184
1772.262, 6739.066
1774.191, 6753.727
1776.119, 6745.233
1778.048, 6735.161
1779.976, 6736.642
1781.905, 6743.626
1783.833, 6756.213
1785.761, 6739.039
1787.690, 6720.744
1789.618, 6769.560
1791.547, 6793.915
1793.475, 6726.667
1795.404, 6696.734
1797.332, 6704.998
1799.261, 6694.311
1801.189, 6673.725
1803.118, 6651.596
1805.046, 6630.474
1806.975, 6611.509
1808.903, 6586.990
1810.832, 6565.168
1812.760, 6581.382
1814.688, 6600.857
1816.617, 6603.089
1818.545, 6588.409
1820.474, 6556.797
1822.402, 6519.895
1824.331, 6490.581
1826.259, 6516.337
1828.188, 6515.343
1830.116, 6448.516
1832.045, 6429.619
1833.973, 6451.821
1835.902, 6447.574
1837.830, 6427.038
1839.759, 6393.751
1841.687, 6360.540
1843.615, 6329.903
1845.544, 6313.254
1847.472, 6299.588
1849.401, 6254.139
1851.329, 6225.736
1853.258, 6241.110
1855.186, 6214.959
1857.115, 6158.503
1859.043, 6170.026
1860.972, 6191.941
1862.900, 6172.056
1864.829, 6156.937
1866.757, 6150.378
1868.686, 6129.855
1870.614, 6105.147
1872.542, 6086.132
1874.471, 6077.471
1876.399, 6081.981
1878.328, 6072.014
1880.256, 6051.557
1882.185, 6016.938
1884.113, 5991.974
1886.042, 5999.751
1887.970, 6007.515
1889.899, 6005.181
1891.827, 5945.856
1893.756, 5883.297
1895.684, 5864.549
1897.613, 5867.375
1899.541, 5890.345
1901.469, 5854.608
1903.398, 5800.861
1905.326, 5803.959
1907.255, 5798.404
1909.183, 5757.625
1911.112, 5748.114
1913.040, 5746.917
1914.969, 5683.330
1916.897, 5635.775
1918.826, 5667.941
1920.754, 5659.683
1922.683, 5618.326
1924.611, 5595.392
1926.540, 5580.160
1928.468, 5568.299
1930.396, 5562.573
1932.325, 5559.477
1934.253, 5512.330
1936.182, 5468.705
1938.110, 5488.359
1940.039, 5488.433
1941.967, 5449.954
1943.896, 5393.385
1945.824, 5358.562
1947.753, 5398.543
1949.681, 5415.223
1951.610, 5381.363
1953.538, 5351.936
1955.467, 5336.500
1957.395, 5362.436
1959.323, 5352.635
1961.252, 5280.302
1963.180, 5241.588
1965.109, 5226.044
1967.037, 5235.035
1968.966, 5215.622
1970.894, 5145.964
1972.823, 5132.808
1974.751, 5145.319
1976.680, 5111.815
1978.608, 5080.436
1980.537, 5064.598
1982.465, 5066.629
1984.394, 5073.678
1986.322, 5047.677
1988.250, 5008.388
1990.179, 4967.193
1992.107, 4953.706
1994.036, 4950.026
1995.964, 4932.823
1997.893, 4918.563
1999.821, 4905.601
2001.750, 4882.019
2003.678, 4858.887
2005.607, 4849.102
2007.535, 4837.436
2009.464, 4821.965
2011.392, 4781.605
2013.321, 4735.843
2015.249, 4712.027
2017.177, 4700.052
2019.106, 4702.813
2021.034, 4695.071
2022.963, 4674.364
2024.891, 4654.721
2026.820, 4632.834
2028.748, 4602.637
2030.677, 4574.942
2032.605, 4555.939
2034.534, 4541.220
2036.462, 4527.091
2038.391, 4524.419
2040.319, 4519.132
2042.248, 4502.694
2044.176, 4484.031
2046.104, 4456.266
2048.033, 4417.218
2049.961, 4411.794
2051.890, 4404.098
2053.818, 4363.452
2055.747, 4352.116
2057.675, 4360.483
2059.604, 4331.192
2061.532, 4295.905
2063.461, 4289.087
2065.389, 4267.186
2067.318, 4227.915
2069.246, 4227.760
2071.175, 4231.733
2073.103, 4209.870
2075.031, 4192.678
2076.960, 4180.761
2078.888, 4170.902
2080.817, 4146.999
2082.745, 4100.857
2084.674, 4041.154
2086.602, 3994.281
2088.531, 4006.107
2090.459, 4022.937
2092.388, 4027.340
2094.316, 4008.996
2096.245, 3989.778
2098.173, 3999.025
2100.102, 3984.602
2102.030, 3942.807
2103.958, 3930.058
2105.887, 3916.078
2107.815, 3886.687
2109.744, 3873.652
2111.672, 3868.994
2113.601, 3837.413
2115.529, 3804.659
2117.458, 3779.198
2119.386, 3773.948
2121.315, 3766.713
2123.243, 3722.477
2125.172, 3699.539
2127.100, 3693.567
2129.029, 3671.608
2130.957, 3651.956
2132.885, 3640.621
2134.814, 3623.077
2136.742, 3610.188
2138.671, 3604.729
2140.599, 3583.746
2142.528, 3556.147
2144.456, 3529.328
2146.385, 3508.347
2148.313, 3506.979
2150.242, 3500.771
2152.170, 3493.253
2154.099, 3470.282
2156.027, 3448.021
2157.956, 3442.013
2159.884, 3430.969
2161.813, 3414.132
2163.741, 3386.621
2165.669, 3347.813
2167.598, 3311.438
2169.526, 3338.319
2171.455, 3348.224
2173.383, 3278.819
2175.312, 3257.972
2177.240, 3267.006
2179.169, 3268.733
2181.097, 3254.753
2183.026, 3228.936
2184.954, 3211.385
2186.883, 3192.180
2188.811, 3166.656
2190.740, 3150.576
2192.668, 3138.360
2194.596, 3121.375
2196.525, 3111.333
2198.453, 3099.413
2200.382, 3088.346
2202.310, 3079.952
2204.239, 3071.336
2206.167, 3048.406
2208.096, 3023.255
2210.024, 3012.200
2211.953, 3000.406
2213.881, 2991.659
2215.810, 2969.334
2217.738, 2946.951
2219.667, 2947.166
2221.595, 2932.336
2223.523, 2902.661
2225.452, 2897.804
2227.380, 2884.718
2229.309, 2852.147
2231.237, 2830.992
2233.166, 2807.821
2235.094, 2769.404
2237.023, 2768.721
2238.951, 2783.716
2240.880, 2768.922
2242.808, 2745.121
2244.737, 2719.571
2246.665, 2709.725
2248.594, 2699.669
2250.522, 2680.150
2252.450, 2679.242
2254.379, 2680.872
2256.307, 2661.070
2258.236, 2634.887
2260.164, 2608.724
2262.093, 2603.131
2264.021, 2594.693
2265.950, 2574.293
2267.878, 2555.449
2269.807, 2542.245
2271.735, 2547.522
2273.664, 2521.010
2275.592, 2482.328
2277.521, 2477.586
2279.449, 2484.115
2281.377, 2493.204
2283.306, 2464.274
2285.234, 2439.125
2287.163, 2446.869
2289.091, 2434.089
2291.020, 2417.507
2292.948, 2420.242
2294.877, 2392.080
2296.805, 2347.830
2298.734, 2354.709
2300.662, 2360.205
2302.591, 2349.331
2304.519, 2339.551
2306.448, 2328.022
2308.376, 2316.075
2310.304, 2306.411
2312.233, 2299.831
2314.161, 2299.292
2316.090, 2278.185
2318.018, 2247.696
2319.947, 2243.130
2321.875, 2241.458
2323.804, 2236.685
2325.732, 2221.708
2327.661, 2211.669
2329.589, 2209.449
2331.518, 2200.030
2333.446, 2190.553
2335.375, 2178.635
2337.303, 2164.198
2339.231, 2145.554
2341.160, 2118.273
2343.088, 2099.655
2345.017, 2086.896
2346.945, 2079.075
2348.874, 2076.305
2350.802, 2066.978
2352.731, 2061.280
2354.659, 2063.846
2356.588, 2059.387
2358.516, 2060.089
2360.445, 2061.454
2362.373, 2039.777
2364.302, 2016.988
2366.230, 1995.985
2368.158, 1991.316
2370.087, 1982.105
2372.015, 1962.396
2373.944, 1958.327
2375.872, 1953.354
2377.801, 1938.162
2379.729, 1929.194
2381.658, 1923.368
2383.586, 1914.421
2385.515, 1911.897
2387.443, 1906.634
2389.372, 1892.612
2391.300, 1884.835
2393.229, 1879.554
2395.157, 1871.221
2397.085, 1856.417
2399.014, 1844.135
2400.942, 1821.233
2402.871, 1810.551
2404.799, 1824.686
2406.728, 1808.419
2408.656, 1791.183
2410.585, 1791.002
2412.513, 1776.295
2414.442, 1772.031
2416.370, 1779.899
2418.299, 1768.540
2420.227, 1758.060
2422.156, 1742.190
2424.084, 1710.448
2426.012, 1695.522
2427.941, 1703.467
2429.869, 1706.590
2431.798, 1696.432
2433.726, 1668.159
2435.655, 1652.815
2437.583, 1654.001
2439.512, 1666.761
2441.440, 1651.413
2443.369, 1629.626
2445.297, 1637.473
2447.226, 1623.376
2449.154, 1591.737
2451.083, 1591.769
2453.011, 1600.786
2454.939, 1599.114
2456.868, 1579.973
2458.796, 1563.749
2460.725, 1558.953
2462.653, 1531.984
2464.582, 1516.155
2466.510, 1525.796
2468.439, 1524.421
2470.367, 1513.973
2472.296, 1507.148
2474.224, 1500.363
2476.153, 1487.028
2478.081, 1472.287
2480.010, 1474.919
2481.938, 1474.249
2483.866, 1453.763
2485.795, 1436.946
2487.723, 1428.716
2489.652, 1433.418
2491.580, 1433.703
2493.509, 1419.837
2495.437, 1403.939
2497.366, 1411.331
2499.294, 1412.178
2501.223, 1387.433
2503.151, 1369.423
2505.080, 1371.563
2507.008, 1380.012
2508.937, 1367.008
2510.865, 1345.622
2512.793, 1338.710
2514.722, 1326.094
2516.650, 1311.633
2518.579, 1313.647
2520.507, 1303.883
2522.436, 1290.372
2524.364, 1287.018
2526.293, 1281.052
2528.221, 1286.872
2530.150, 1295.585
2532.078, 1274.109
2534.007, 1254.841
2535.935, 1246.899
2537.864, 1229.348
2539.792, 1215.160
2541.720, 1216.663
2543.649, 1221.917
2545.577, 1232.011
2547.506, 1229.116
2549.434, 1224.545
2551.363, 1219.628
2553.291, 1204.292
2555.220, 1180.867
2557.148, 1174.964
2559.077, 1182.635
2561.005, 1154.888
2562.934, 1148.656
2564.862, 1160.418
2566.791, 1140.922
2568.719, 1129.372
2570.647, 1126.429
2572.576, 1126.760
2574.504, 1110.615
2576.433, 1096.322
2578.361, 1104.426
2580.290, 1099.798
2582.218, 1092.181
2584.147, 1075.479
2586.075, 1066.183
2588.004, 1058.864
2589.932, 1045.951
2591.861, 1052.864
2593.789, 1057.059
2595.718, 1047.427
2597.646, 1034.375
2599.574, 1025.264
2601.503, 1010.246
2603.431, 1013.918
2605.360, 1019.079
2607.288, 1016.141
2609.217, 1004.131
2611.145, 985.0493
2613.074, 983.5473
2615.002, 966.9259
2616.931, 949.5622
2618.859, 939.1448
2620.788, 938.7650
2622.716, 941.1674
2624.645, 949.6125
2626.573, 943.2149
2628.501, 927.5640
2630.430, 917.9025
2632.358, 925.8789
2634.287, 924.4109
2636.215, 903.0685
2638.144, 902.8845
2640.072, 907.3725
2642.001, 902.1530
2643.929, 883.3509
2645.858, 870.3995
2647.786, 868.1914
2649.715, 870.5631
2651.643, 866.7189
2653.572, 864.1647
2655.500, 863.1893
2657.428, 851.3335
2659.357, 846.5916
2661.285, 835.5409
2663.214, 828.8541
2665.142, 824.5278
2667.071, 823.1207
2668.999, 816.1481
2670.928, 809.8376
2672.856, 817.7672
2674.785, 808.8007
2676.713, 796.9944
2678.642, 790.9587
2680.570, 788.9971
2682.499, 788.9259
2684.427, 784.1259
2686.355, 768.6615
2688.284, 757.9599
2690.212, 757.6185
2692.141, 753.0515
2694.069, 746.1243
2695.998, 737.3322
2697.926, 737.8680
2699.855, 730.6639
2701.783, 721.3939
2703.712, 719.2678
2705.640, 712.5192
2707.569, 708.9017
2709.497, 708.0397
2711.426, 709.2795
2713.354, 704.9247
2715.282, 693.3231
2717.211, 692.8615
2719.139, 684.0836
2721.068, 670.1924
2722.996, 663.4397
2724.925, 665.1171
2726.853, 666.1282
2728.782, 658.9113
2730.710, 645.2720
2732.639, 636.5248
2734.567, 641.3622
2736.496, 633.8531
2738.424, 625.4402
2740.353, 622.8282
2742.281, 624.2013
2744.209, 612.4570
2746.138, 596.2922
2748.066, 604.8014
2749.995, 607.3086
2751.923, 602.3811
2753.852, 592.8682
2755.780, 589.7117
2757.709, 589.5341
2759.637, 590.0021
2761.566, 574.2653
2763.494, 563.9424
2765.423, 566.2700
2767.351, 566.3898
2769.280, 564.5166
2771.208, 562.3536
2773.136, 564.8482
2775.065, 560.1400
2776.993, 550.9202
2778.922, 541.0940
2780.850, 537.5468
2782.779, 533.8383
2784.707, 527.3657
2786.636, 523.1757
2788.564, 522.1638
2790.493, 522.1299
2792.421, 509.5171
2794.350, 502.2440
2796.278, 501.1283
2798.207, 506.1591
2800.135, 493.2563
2802.063, 487.0246
2803.992, 492.9701
2805.920, 483.6335
2807.849, 484.3042
2809.777, 486.9596
2811.706, 464.9839
2813.634, 465.7379
2815.563, 468.3296
2817.491, 450.3260
2819.420, 454.1265
2821.348, 457.8655
2823.277, 452.5792
2825.205, 442.2919
2827.134, 440.1348
2829.062, 440.7011
2830.990, 441.8844
2832.919, 434.7875
2834.847, 427.8658
2836.776, 426.7169
2838.704, 419.3226
2840.633, 418.7047
2842.561, 423.4628
2844.490, 412.9848
2846.418, 404.9633
2848.347, 400.8818
2850.275, 393.3143
2852.204, 394.1686
2854.132, 397.9465
2856.061, 395.2303
2857.989, 393.5540
2859.917, 392.6417
2861.846, 391.3385
2863.774, 388.9072
2865.703, 375.7796
2867.631, 370.5660
2869.560, 370.7657
2871.488, 370.7863
2873.417, 370.4400
2875.345, 364.3188
2877.274, 357.0461
2879.202, 357.1760
2881.131, 354.8874
2883.059, 339.7861
2884.988, 340.3758
2886.916, 336.4122
2888.844, 331.1280
2890.773, 339.8643
2892.701, 342.9897
2894.630, 341.8958
2896.558, 329.1063
2898.487, 316.3115
2900.415, 310.7677
2902.344, 313.5670
2904.272, 315.8088
2906.201, 310.8379
2908.129, 303.0901
2910.058, 296.7502
2911.986, 302.6175
2913.915, 299.2230
2915.843, 291.2228
2917.771, 295.8987
2919.700, 296.5337
2921.628, 287.5105
2923.557, 272.7912
2925.485, 269.9327
2927.414, 270.6588
2929.342, 270.5003
2931.271, 276.0587
2933.199, 273.6303
2935.128, 270.9167
2937.056, 275.1490
2938.985, 270.7336
2940.913, 265.6920
2942.842, 259.2140
2944.770, 260.5023
2946.698, 255.3702
2948.627, 253.3994
2950.555, 252.0435
2952.484, 247.7470
2954.412, 245.1341
2956.341, 245.0899
2958.269, 251.9153
2960.198, 257.4320
2962.126, 250.5445
2964.055, 238.5002
2965.983, 247.3360
2967.912, 243.4715
2969.840, 234.6167
2971.769, 229.7143
2973.697, 223.3756
2975.625, 222.7332
2977.554, 222.0262
2979.482, 219.4444
2981.411, 216.6366
2983.339, 216.6686
2985.268, 216.1250
2987.196, 217.3879
2989.125, 209.5319
2991.053, 203.2661
2992.982, 206.5248
2994.910, 207.9329
2996.839, 201.7028
2998.767, 200.1068
3000.696, 208.0612
3002.624, 208.4144
3004.552, 201.5426
3006.481, 196.8825
3008.409, 187.7594
3010.338, 183.8094
3012.266, 187.8194
3014.195, 185.3075
3016.123, 183.8007
3018.052, 179.7475
3019.980, 175.4344
3021.909, 181.2725
3023.837, 178.5647
3025.766, 179.0485
3027.694, 179.0451
3029.623, 168.9375
3031.551, 170.0230
3033.479, 170.6561
3035.408, 159.4311
3037.336, 158.3967
3039.265, 161.2238
3041.193, 158.2315
3043.122, 159.2452
3045.050, 156.3165
3046.979, 156.7846
3048.907, 161.7871
3050.836, 154.6349
3052.764, 139.8663
3054.693, 141.7401
3056.621, 158.7854
3058.550, 157.1422
3060.478, 144.4541
3062.407, 136.0759
3064.335, 149.4327
3066.264, 165.8272
3068.192, 176.6528
3070.121, 157.1228
3072.049, 142.1294
3073.978, 141.3281
3075.906, 138.3134
3077.834, 132.1652
3079.763, 127.5464
3081.691, 123.6291
3083.620, 121.8450
3085.548, 122.1731
3087.477, 124.7220
3089.405, 118.6017
3091.334, 116.8117
3093.262, 123.5545
3095.191, 134.2372
3097.119, 124.8927
3099.048, 112.9008
3100.976, 111.4521
3102.905, 117.4552
3104.833, 115.3345
3106.761, 107.6926
3108.690, 102.8756
3110.618, 106.7234
3112.547, 109.6882
3114.475, 113.3341
3116.404, 114.1855
3118.332, 104.9280
3120.261, 104.1240
3122.189, 102.6639
3124.118, 94.41181
3126.046, 88.07853
3127.975, 88.72909
3129.903, 95.88863
3131.832, 104.4540
3133.760, 101.2945
3135.688, 105.4589
3137.617, 105.1304
3139.545, 98.74879
3141.474, 99.32145
3143.402, 85.99510
3145.331, 85.26085
3147.259, 100.9165
3149.188, 88.55885
3151.116, 86.37251
3153.045, 89.97285
3154.973, 95.38116
3156.902, 100.4246
3158.830, 95.54152
3160.759, 83.93419
3162.687, 75.26357
3164.615, 82.69135
3166.544, 77.62074
3168.472, 76.95250
3170.401, 80.81286
3172.329, 73.05287
3174.258, 73.50259
3176.186, 84.12581
3178.115, 90.02757
3180.043, 70.43731
3181.972, 70.66790
3183.900, 73.98076
3185.829, 74.06609
3187.757, 76.52723
3189.686, 67.35277
3191.614, 69.40284
3193.542, 73.28205
3195.471, 66.55727
3197.399, 78.79993
3199.328, 81.33459
3201.256, 76.36193
3203.185, 71.23265
3205.113, 70.50413
3207.042, 63.43370
3208.970, 61.29045
3210.899, 66.97533
3212.827, 68.80658
3214.756, 58.31810
3216.684, 57.93284
3218.613, 68.29556
3220.541, 68.61391
3222.469, 55.25101
3224.398, 50.98695
3226.326, 57.79948
3228.255, 69.06562
3230.183, 66.26242
3232.112, 63.20084
3234.040, 61.50439
3235.969, 60.30971
3237.897, 64.52974
3239.826, 60.73766
3241.754, 63.11162
3243.683, 73.09722
3245.611, 68.14663
3247.540, 60.31885
3249.468, 58.26596
3251.396, 67.63801
3253.325, 85.10089
3255.253, 88.83780
3257.182, 71.53108
3259.110, 56.02674
3261.039, 64.16475
3262.967, 65.60545
3264.896, 61.07917
3266.824, 53.65335
3268.753, 48.96655
3270.681, 58.85933
3272.610, 60.23457
3274.538, 53.61520
3276.467, 46.56951
3278.395, 47.27406
3280.323, 53.94353
3282.252, 55.65682
3284.180, 52.92875
3286.109, 48.04925
3288.037, 47.66273
3289.966, 50.70196
3291.894, 55.84933
3293.823, 60.08995
3295.751, 59.48113
3297.680, 61.48996
3299.608, 55.95999
3301.537, 51.61319
3303.465, 56.08392
3305.394, 50.88091
3307.322, 47.42879
3309.250, 40.29072
3311.179, 34.41870
3313.107, 46.20070
3315.036, 49.67452
3316.964, 46.19956
3318.893, 43.55347
3320.821, 46.51534
3322.750, 48.63077
3324.678, 41.77885
3326.607, 43.37860
3328.535, 51.26438
3330.464, 50.26041
3332.392, 48.96866
3334.321, 51.44967
3336.249, 49.31847
3338.177, 42.29700
3340.106, 44.13107
3342.034, 36.73503
3343.963, 39.23444
3345.891, 44.82217
3347.820, 42.57962
3349.748, 44.58270
3351.677, 44.01341
3353.605, 41.85536
3355.534, 39.16070
3357.462, 33.27692
3359.391, 37.38019
3361.319, 46.03892
3363.248, 46.79094
3365.176, 39.91263
3367.104, 45.29788
3369.033, 38.69267
3370.961, 35.40793
3372.890, 32.41335
3374.818, 25.97520
3376.747, 47.70016
3378.675, 27.43718
3380.604, 28.44954
3382.532, 45.75709
3384.461, 40.90076
3386.389, 32.58209
3388.318, 29.99590
3390.246, 34.64453
3392.175, 39.74648
3394.103, 36.25620
3396.031, 39.01231
3397.960, 42.29033
3399.888, 38.56327
3401.817, 32.11394
3403.745, 42.85313
3405.674, 33.18805
3407.602, 37.19275
3409.531, 40.83002
3411.459, 36.00385
3413.388, 43.10406
3415.316, 35.81752
3417.245, 31.48495
3419.173, 31.03164
3421.102, 30.55529
3423.030, 27.58874
3424.958, 27.10130
3426.887, 33.42454
3428.815, 36.54201
3430.744, 32.80570
3432.672, 40.83733
3434.601, 29.15597
3436.529, 20.69077
3438.458, 28.51287
3440.386, 44.88799
3442.315, 29.74371
3444.243, 39.49581
3446.172, 23.84389
3448.100, 19.90842
3450.029, 44.12264
3451.957, 32.02913
3453.885, 38.94945
3455.814, 33.65631
3457.742, 27.77656
3459.671, 29.86614
3461.599, 26.68925
3463.528, 34.25444
3465.456, 35.69259
3467.385, 30.75596
3469.313, 23.83941
3471.242, 19.66454
3473.170, 33.94778
3475.099, 35.50089
3477.027, 32.13295
3478.956, 27.83196
3480.884, 20.23239
3482.813, 33.83498
3484.741, 29.17170
3486.669, 29.64152
3488.598, 32.31515
3490.526, 23.58311
3492.455, 24.70528
3494.383, 25.26731
3496.312, 28.48540
3498.240, 25.52532
3500.169, 14.93776
3502.097, 20.73369
3504.026, 22.98580
3505.954, 19.89016
3507.883, 25.36437
3509.811, 34.72746
3511.740, 21.64913
3513.668, 21.31595
3515.596, 20.83555
3517.525, 24.03542
3519.453, 29.03074
3521.382, 30.88471
3523.310, 32.14192
3525.239, 17.47629
3527.167, 19.37602
3529.096, 27.56420
3531.024, 29.79316
3532.953, 33.24293
3534.881, 21.56791
3536.810, 18.78941
3538.738, 22.77885
3540.667, 28.66971
3542.595, 32.81519
3544.523, 24.85915
3546.452, 21.45331
3548.380, 23.84692
3550.309, 27.69575
3552.237, 27.38496
3554.166, 19.16737
3556.094, 22.34390
3558.023, 25.57360
3559.951, 28.61128
3561.880, 26.48336
3563.808, 16.37294
3565.737, 9.740013
3567.665, 21.04198
3569.594, 27.38791
3571.522, 19.92393
3573.450, 12.90685
3575.379, 23.48913
3577.307, 22.91213
3579.236, 30.76811
3581.164, 35.04488
3583.093, 29.68640
3585.021, 19.66742
3586.950, 15.82268
3588.878, 11.99012
3590.807, 15.09326
3592.735, 23.71914
3594.664, 21.53449
3596.592, 7.769988
3598.521, 15.35590
3600.449, 27.15512
3602.377, 17.35946
3604.306, 13.87025
3606.234, 19.87474
3608.163, 22.22076
3610.091, 10.45511
3612.020, 26.53182
3613.948, 25.13566
3615.877, 23.29214
3617.805, 20.95906
3619.734, 13.24814
3621.662, 17.90770
3623.591, 19.94839
3625.519, 27.20826
3627.448, 24.91572
3629.376, 20.09505
3631.304, 21.55567
3633.233, 17.25849
3635.161, 22.86021
3637.090, 21.17406
3639.018, 18.35864
3640.947, 19.05072
3642.875, 23.82021
3644.804, 30.11716
3646.732, 13.42759
3648.661, 14.97189
3650.589, 21.17811
3652.518, 16.68510
3654.446, 7.426834
3656.375, 12.06758
3658.303, 23.27372
3660.231, 22.69081
3662.160, 17.72371
3664.088, 14.94493
3666.017, 13.75312
3667.945, 11.30168
3669.874, 10.59530
3671.802, 26.44031
3673.731, 22.75738
3675.659, 17.05573
3677.588, 14.46775
3679.516, 12.54775
3681.445, 23.36279
3683.373, 24.15109
3685.302, 11.86612
3687.230, 19.61864
3689.158, 28.90895
3691.087, 25.56144
3693.015, 17.72235
3694.944, 10.78051
3696.872, 20.39656
3698.801, 13.24558
3700.729, 10.21032
3702.658, 14.53825
3704.586, 17.33996
3706.515, 18.37130
3708.443, 9.700987
3710.372, 7.068249
3712.300, 14.25332
3714.229, 14.26608
3716.157, 14.01467
3718.085, 24.36551
3720.014, 19.79169
3721.942, 26.82241
3723.871, 12.62537
3725.799, 11.64559
3727.728, 10.31540
3729.656, 2.491215
3731.585, 2.785662
3733.513, 10.31763
3735.442, 14.15222
3737.370, 15.99338
3739.299, 22.79758
3741.227, 17.30190
3743.156, 4.551852
3745.084, 7.246335
3747.012, 15.88236
3748.941, 14.54749
3750.869, 19.81017
3752.798, 17.83821
3754.726, 13.31967
3756.655, 15.35403
3758.583, 21.26003
3760.512, 7.401691
3762.440, 18.27831
3764.369, 8.531561
3766.297, 9.851240
3768.226, 15.66400
3770.154, 13.14746
3772.083, 6.443129
3774.011, 12.35465
3775.939, 20.12050
3777.868, 6.416204
3779.796, 9.137122
3781.725, 9.765588
3783.653, 7.290189
3785.582, 10.33045
3787.510, 14.37934
3789.439, 21.09969
3791.367, 12.26734
3793.296, 14.42995
3795.224, 10.94896
3797.153, 10.13040
3799.081, 15.79623
3801.010, 15.73901
3802.938, 6.010986
3804.866, 18.49923
3806.795, 15.91220
3808.723, 3.595482
3810.652, 11.69696
3812.580, 19.41319
3814.509, 13.94565
3816.437, 16.48427
3818.366, 9.870843
3820.294, 18.53744
3822.223, 21.14559
3824.151, 18.24765
3826.080, 15.41637
3828.008, 16.30774
3829.937, 16.50924
3831.865, 8.754519
3833.793, 13.70136
3835.722, 9.309301
3837.650, 12.97748
3839.579, 17.16759
3841.507, 19.49626
3843.436, 15.22289
3845.364, 10.21073
3847.293, 18.63453
3849.221, 17.60725
3851.150, 15.22299
3853.078, 16.13723
3855.007, 12.88739
3856.935, 10.62013
3858.864, 11.29780
3860.792, 11.93061
3862.720, 12.26891
3864.649, 17.57466
3866.577, 12.57327
3868.506, 22.10595
3870.434, -3.579217
3872.363, 9.354259
3874.291, 18.33095
3876.220, 12.76983
3878.148, 15.55977
3880.077, 4.908705
3882.005, 24.37918
3883.934, 6.562711
3885.862, 17.93398
3887.791, 18.73593
3889.719, 21.52008
3891.647, 23.15026
3893.576, 15.62714
3895.504, 8.329571
3897.433, 15.95273
3899.361, 12.42379
3901.290, 10.51768
3903.218, 14.11322
3905.147, 9.304707
3907.075, 13.30715
3909.004, 24.97003
3910.932, 28.23162
3912.861, 20.56427
3914.789, 17.19254
3916.718, 4.619389
3918.646, 5.519536
3920.574, 5.020540
3922.503, 22.58171
3924.431, 25.23441
3926.360, 11.42537
3928.288, 4.596790
3930.217, 9.388433
3932.145, 11.46483
3934.074, 21.54784
3936.002, 17.04372
3937.931, 12.25588
3939.859, 10.11472
3941.788, 10.42272
3943.716, 14.91636
3945.645, 12.20125
3947.573, 11.84504
3949.501, 20.73089
3951.430, 8.257863
3953.358, 0.6660320
3955.287, 8.399731
3957.215, 23.23088
3959.144, 14.58370
3961.072, 15.35236
3963.001, 13.46796
3964.929, 10.17656
3966.858, 9.580182
3968.786, 8.286789
3970.715, 14.80428
3972.643, 18.85527
3974.572, 14.10238
3976.500, 18.04386
3978.428, 9.352126
3980.357, 13.83804
3982.285, 6.247904
3984.214, -0.2193514
3986.142, 4.380709
3988.071, 5.795518
3989.999, 0.1678191
3991.928, 2.915209
3993.856, 11.81665
3995.785, 2.787811
3997.713, 1.862179
3999.642, 8.663587
4001.570, 3.416249
4003.499, 0.6026760
4005.427, 8.675276
4007.355, 12.15969
4009.284, 10.22507
4011.212, 15.90709
4013.141, 12.66629
4015.069, 20.78122
4016.998, 5.708957
4018.926, 6.937953
4020.855, 4.247298
4022.783, 5.792933
4024.712, 9.579586
4026.640, 19.98639
4028.569, 25.77030
4030.497, 17.75985
4032.426, 9.367446
4034.354, 14.69404
4036.282, 15.16953
4038.211, 10.05536
4040.139, 14.21414
4042.068, 6.428024
4043.996, 12.07530
4045.925, 16.52716
4047.853, 11.30437
4049.782, 5.224112
4051.710, 10.21288
4053.639, 15.49672
4055.567, 10.70633
4057.496, 8.145715
4059.424, 10.23301
4061.353, 2.482802
4063.281, 13.71471
4065.209, 13.91830
4067.138, 0.3315256
4069.066, 22.87377
4070.995, 13.97371
4072.923, 6.307739
4074.852, 14.27354
4076.780, 5.013697
4078.709, 4.327251
4080.637, 19.07146
4082.566, 7.656352
4084.494, 4.873544
4086.423, 6.737134
4088.351, 17.45632
4090.280, 22.74693
4092.208, 12.39071
4094.136, 7.608400
4096.065, 10.62978
4097.994, 8.542825
4099.922, 2.458655
4101.851, 7.945992
4103.779, 12.37330
4105.708, 4.513339
4107.636, -0.2837425
4109.564, 8.306606
4111.493, 14.46118
4113.421, 11.70763
4115.350, 9.684037
4117.278, 18.12755
4119.207, 23.50426
4121.135, 20.30799
4123.063, 8.812366
4124.992, 8.177791
4126.920, 7.421365
4128.849, 9.785489
4130.777, 13.37065
4132.706, 13.82315
4134.634, 11.70236
4136.563, 6.569719
4138.491, 8.630006
4140.420, 25.47252
4142.348, 27.43994
4144.277, 4.187454
4146.205, 21.44770
4148.134, 14.43940
4150.062, 2.099999
4151.991, 5.843591
4153.919, 27.51064
4155.848, 11.77594
4157.776, 9.541971
4159.705, 18.70535
4161.633, 8.015647
4163.562, 11.73187
4165.490, 17.32716
4167.418, 1.272107
4169.347, -5.389850
4171.275, 6.955764
4173.204, 13.89442
4175.132, 14.21586
4177.061, 4.128156
4178.989, -0.4816397
4180.917, 17.59338
4182.846, 0.5678592
4184.774, -3.121273
4186.703, 13.15225
4188.631, 12.51665
4190.560, 10.26492
4192.488, 16.96791
4194.417, 12.11928
4196.345, -1.389892
4198.274, 3.447301
4200.202, 8.599965
4202.131, 1.369126
4204.059, 5.244336
4205.988, 8.486940
4207.916, 7.705821
4209.845, 7.286883
4211.773, 3.864765
4213.702, 7.443773
4215.630, 14.53424
4217.559, 10.56879
4219.487, 2.843355
4221.416, 7.805732
4223.344, 16.98059
4225.272, 12.18327
4227.201, -2.353076
4229.129, 2.502393
4231.058, 12.37785
4232.986, 9.322910
4234.915, 9.475451
4236.843, 18.31159
4238.771, 20.66334
4240.700, 10.58995
4242.628, 4.449618
4244.557, 12.29373
4246.485, 14.19304
4248.414, 3.389330
4250.342, 10.98429
4252.271, 22.26732
4254.199, 21.22464
4256.128, 19.74520
4258.056, 23.24963
4259.985, 17.24518
4261.913, 10.72948
4263.842, 13.49013
4265.770, 12.59662
4267.699, 11.64106
4269.627, 2.464543
4271.556, 4.582266
4273.484, 12.67462
4275.413, 20.63858
4277.341, 24.17704
4279.270, 13.21996
4281.198, 15.28396
4283.126, -7.034303
4285.055, 5.927452
4286.983, 2.584532
4288.912, 10.44827
4290.840, 15.54213
4292.769, 8.534832
4294.697, 11.02335
4296.625, -1.351020
4298.554, 0.9570796
4300.482, 0.1948143
4302.411, 16.39375
4304.339, 11.43055
4306.268, 23.70200
4308.196, 6.692710
4310.125, 8.299878
4312.053, 10.46468
4313.982, 1.918911
4315.910, 17.74134
4317.839, 7.541821
4319.767, 13.03932
4321.696, 16.44250
4323.624, 5.501294
4325.553, 14.40522
4327.481, 24.32690
4329.410, 15.87559
4331.338, 8.647093
4333.267, 4.868807
##END=



